aX,aY,aZ,gX,gY,gZ
-0.191,-1.281,1.248,-35.339,-253.723,61.584
-0.306,-1.081,1.440,-19.714,-241.150,116.089
-0.511,-1.143,1.373,25.513,-227.417,155.273
-0.733,-1.246,1.167,70.923,-220.154,195.679
-0.934,-1.028,1.112,123.169,-237.427,246.155
-1.014,-0.570,1.426,174.805,-274.658,284.790
-1.068,-0.067,1.658,186.951,-297.363,304.565
-1.078,0.219,1.758,149.414,-290.833,302.734
-1.098,0.130,1.800,109.680,-263.123,284.607
-0.995,-0.007,1.813,71.655,-225.586,270.264
-0.866,0.093,1.756,50.781,-183.289,268.738
-0.736,0.088,1.722,32.837,-145.142,259.216
-0.667,-0.006,1.576,15.198,-101.868,237.915
-0.624,0.017,1.480,14.160,-67.322,224.548
-0.585,0.233,1.489,22.583,-45.593,214.722
-0.583,0.261,1.561,21.362,-23.865,184.143
-0.623,0.202,1.508,7.080,9.033,148.071
-0.599,0.184,1.312,-10.681,48.340,117.432
-0.537,0.206,1.113,-23.376,77.393,89.966
-0.480,0.151,0.983,-31.921,90.393,60.974
-0.419,0.124,0.837,-36.865,94.055,36.072
-0.318,0.184,0.834,-38.086,86.487,14.893
-0.256,0.217,0.927,-33.997,75.500,-6.042
-0.223,0.108,0.998,-30.334,71.228,-28.870
-0.188,-0.004,0.979,-29.785,74.158,-48.096
-0.164,-0.215,0.946,-33.325,77.148,-64.453
-0.152,-0.409,0.962,-37.781,75.623,-72.693
-0.123,-0.513,0.952,-39.063,73.120,-68.054
-0.066,-0.490,0.904,-36.255,71.045,-54.993
-0.006,-0.412,0.901,-29.602,66.284,-41.260
0.023,-0.400,0.907,-21.545,60.974,-31.860
0.041,-0.392,0.843,-17.517,59.082,-23.682
0.051,-0.302,0.781,-13.062,55.054,-13.611
0.044,-0.218,0.735,-7.935,46.387,-6.836
0.042,-0.168,0.702,-3.662,35.034,-5.188
0.026,-0.151,0.717,-1.343,22.400,-5.554
0.008,-0.159,0.767,0.488,9.705,-6.470
-0.017,-0.229,0.854,0.366,-0.732,-8.240
-0.047,-0.287,0.916,-1.221,-6.653,-8.057
-0.071,-0.286,0.969,-2.319,-8.850,-5.493
-0.099,-0.310,1.068,-6.104,-9.338,-1.770
-0.121,-0.319,1.137,-6.226,-5.310,1.709
-0.119,-0.287,1.070,-2.930,3.174,7.324
-0.116,-0.242,0.982,0.732,9.216,11.353
-0.111,-0.180,0.948,2.319,8.667,13.062
-0.114,-0.151,0.958,1.587,5.188,11.353
-0.132,-0.158,1.011,-0.244,1.770,7.202
-0.148,-0.227,1.007,-4.150,2.319,2.563
-0.130,-0.216,0.994,-6.287,4.700,1.221
-0.103,-0.181,1.007,-4.761,4.517,1.709
-0.084,-0.173,0.994,-3.174,4.700,0.427
-0.075,-0.178,0.985,-2.136,5.005,-0.854
-0.075,-0.193,0.991,-2.075,4.272,-1.892
-0.071,-0.183,0.992,-0.610,3.296,-2.380
-0.075,-0.151,1.002,0.671,2.075,-2.625
-0.104,-0.222,1.028,0.977,2.136,-5.188
-0.108,-0.295,1.016,-1.465,4.028,-6.470
-0.087,-0.310,1.010,-3.784,5.188,-4.272
-0.087,-0.289,1.042,-4.395,4.639,-0.183
-0.091,-0.242,1.044,-3.052,4.944,2.686
-0.101,-0.186,1.015,-2.747,6.104,3.967
-0.106,-0.150,1.012,-2.991,6.592,2.808
-0.097,-0.159,0.986,-2.563,6.226,0.427
-0.089,-0.166,0.972,-2.747,6.104,-1.648
-0.091,-0.264,1.013,-3.418,4.578,-4.883
-0.094,-0.284,1.030,-4.028,4.578,-5.127
-0.088,-0.239,1.020,-1.099,5.005,-1.648
-0.082,-0.196,1.035,0.549,6.226,0.000
-0.075,-0.161,1.021,1.953,7.874,0.183
-0.087,-0.173,1.001,1.892,9.888,-0.916
-0.101,-0.220,0.978,0.732,11.780,-2.991
-0.082,-0.204,0.927,1.770,11.841,-2.930
-0.068,-0.200,0.916,3.052,8.789,-1.953
-0.066,-0.187,0.932,3.540,4.211,-2.014
-0.068,-0.194,0.950,4.028,0.000,-2.991
-0.071,-0.189,0.956,4.150,-2.869,-3.357
-0.086,-0.204,0.981,5.127,-5.127,-3.784
-0.096,-0.214,1.004,5.371,-6.042,-4.395
-0.096,-0.239,1.014,6.714,-5.920,-4.089
-0.083,-0.265,0.996,7.629,-4.333,-3.113
-0.065,-0.275,0.989,7.690,-3.967,-0.854
-0.057,-0.295,0.993,8.240,-4.456,2.014
-0.047,-0.275,0.958,9.521,-4.761,5.798
-0.046,-0.266,0.944,11.719,-6.897,9.583
-0.047,-0.296,0.947,14.221,-10.254,12.329
-0.045,-0.311,0.947,20.386,-13.489,17.212
-0.049,-0.339,0.923,31.311,-16.907,22.949
-0.057,-0.388,0.904,41.382,-20.874,29.663
-0.067,-0.411,0.854,46.875,-26.306,37.415
-0.102,-0.426,0.970,27.100,-32.837,44.128
-0.120,-0.533,1.120,25.208,-37.964,49.133
-0.132,-0.361,1.172,31.799,-31.677,71.594
-0.154,-0.381,1.303,29.236,-23.621,78.918
-0.228,-0.316,1.414,22.461,-12.573,82.214
-0.293,-0.306,1.528,15.259,0.000,79.773
-0.357,-0.336,1.632,2.808,16.052,70.435
-0.369,-0.223,1.664,-9.644,38.269,63.660
-0.366,-0.047,1.702,-21.301,61.829,53.345
-0.283,0.085,1.711,-34.302,87.097,33.386
-0.196,0.143,1.730,-54.077,112.427,9.888
-0.194,0.130,1.675,-74.768,140.259,-14.465
-0.146,0.258,1.527,-83.618,167.236,-38.025
-0.111,0.549,1.462,-89.111,187.134,-64.819
-0.161,0.671,1.425,-102.356,206.970,-104.736
-0.224,0.488,1.112,-73.669,215.149,-153.809
-0.228,0.475,1.175,-76.172,207.520,-200.134
-0.245,0.465,1.243,-108.826,209.778,-236.206
-0.309,0.218,0.973,-134.521,226.990,-269.165
-0.319,0.070,0.767,-198.853,242.493,-304.749
-0.212,-0.187,0.663,-267.700,239.685,-329.407
-0.084,-0.368,0.447,-281.555,228.210,-330.505
0.045,-0.490,0.165,-280.457,210.266,-308.899
0.169,-0.405,-0.023,-244.080,174.561,-274.292
0.308,-0.349,-0.035,-219.238,124.756,-243.347
0.399,-0.405,-0.207,-175.903,80.139,-218.994
0.450,-0.383,-0.355,-125.305,33.447,-186.829
0.485,-0.318,-0.517,-78.247,-16.357,-152.954
0.513,-0.275,-0.563,-36.011,-72.083,-128.540
0.497,-0.432,-0.481,-20.142,-132.996,-120.789

-0.654,-1.036,1.492,7.080,-327.087,144.104
-0.733,-0.828,1.644,40.283,-295.776,191.406
-0.759,-0.480,1.743,74.219,-261.597,231.812
-0.794,-0.161,1.857,96.558,-226.990,255.249
-0.852,0.003,1.911,102.783,-186.035,259.583
-0.914,0.005,1.753,111.328,-142.517,250.610
-0.960,-0.209,1.602,123.962,-112.915,234.009
-0.921,-0.258,1.506,138.733,-109.497,227.966
-0.870,0.004,1.637,171.509,-123.657,231.689
-0.720,0.013,1.898,198.120,-131.958,216.919
-0.693,-0.625,1.576,333.069,-110.779,199.890
-0.862,-0.211,1.472,452.698,-110.596,229.065
-0.797,-0.300,2.036,396.240,-147.583,231.018
-0.882,-0.297,2.242,237.732,-110.046,219.849
-0.962,-0.075,1.950,90.515,-20.386,209.229
-0.846,-0.071,1.511,12.573,52.490,170.593
-0.758,-0.200,1.243,-28.442,87.830,122.742
-0.609,-0.392,1.052,-45.654,98.572,86.548
-0.512,-0.513,1.046,-53.894,93.140,66.467
-0.479,-0.437,1.179,-64.209,82.764,62.256
-0.441,-0.349,1.275,-68.298,82.764,61.035
-0.412,-0.282,1.334,-76.904,95.154,53.345
-0.319,-0.135,1.324,-75.806,113.037,46.814
-0.295,-0.049,1.233,-77.271,129.822,37.415
-0.260,-0.060,1.091,-79.163,143.188,19.653
-0.204,-0.072,0.972,-73.486,148.193,2.625
-0.139,-0.010,0.911,-61.096,145.142,-6.226
-0.092,0.086,0.898,-46.631,137.756,-15.259
-0.035,0.110,0.900,-39.673,129.333,-30.579
0.005,0.034,0.863,-38.818,124.695,-51.147
0.037,-0.080,0.855,-34.119,124.695,-73.730
0.075,-0.149,0.769,-22.705,123.840,-91.614
0.138,-0.231,0.724,-35.706,124.390,-103.088
0.199,-0.375,0.688,-47.546,125.366,-112.305
0.222,-0.561,0.650,-48.157,123.718,-117.004
0.257,-0.658,0.556,-41.321,119.629,-105.896
0.277,-0.632,0.488,-43.213,109.375,-78.003
0.301,-0.514,0.461,-44.067,94.849,-47.363
0.321,-0.401,0.437,-41.809,78.613,-27.405
0.334,-0.320,0.437,-31.128,59.875,-18.005
0.320,-0.267,0.492,-17.334,40.161,-15.076
0.286,-0.244,0.584,-13.611,22.705,-14.893
0.223,-0.262,0.623,-14.038,10.620,-14.954
0.200,-0.319,0.701,-16.479,1.892,-14.832
0.194,-0.369,0.835,-24.963,-5.005,-15.625
0.182,-0.348,0.919,-24.780,-9.644,-12.878
0.157,-0.249,1.001,-26.306,-9.399,-8.301
0.133,-0.266,1.003,-27.588,-5.615,-9.460
0.247,-0.232,0.999,-4.517,-2.869,-13.062
0.127,-0.220,0.880,33.020,-6.775,-15.686
0.109,-0.288,0.895,54.077,-17.090,-23.132
0.118,-0.342,0.944,62.988,-28.259,-27.100
0.118,-0.361,1.024,53.589,-31.128,-27.344
0.101,-0.388,1.023,42.969,-23.804,-26.978
0.117,-0.406,0.997,32.532,-13.489,-27.039
0.129,-0.422,0.998,14.404,-5.493,-23.071
0.137,-0.398,0.947,2.625,-0.244,-16.174
0.122,-0.396,0.927,3.906,-0.793,-11.108
0.104,-0.425,1.014,0.671,-4.395,-8.484
0.090,-0.453,1.070,-3.174,-3.845,-5.005
0.088,-0.458,1.087,-5.066,1.282,0.244
0.096,-0.400,1.100,-1.953,5.981,7.935
0.098,-0.328,1.103,0.000,8.240,14.526
0.107,-0.282,1.079,-4.211,11.292,15.503
0.112,-0.279,1.070,-10.864,14.343,12.512
0.112,-0.312,1.037,-15.625,17.822,8.606
0.133,-0.326,0.990,-17.761,20.935,6.470
0.155,-0.297,0.951,-16.724,21.179,8.423
0.170,-0.263,0.917,-13.428,19.531,10.193
0.177,-0.303,0.895,-13.672,15.625,8.301
0.177,-0.385,0.913,-22.705,11.414,5.249
0.156,-0.418,0.963,-29.968,7.874,6.592
0.145,-0.402,1.001,-27.527,5.371,12.207
0.143,-0.363,0.992,-16.296,3.479,18.372
0.142,-0.331,1.011,-11.047,0.488,21.973
0.145,-0.297,1.055,-9.460,-2.136,23.071
0.144,-0.249,1.040,-3.601,-0.671,23.376
0.138,-0.187,1.003,-1.282,2.075,22.400
0.135,-0.165,0.997,-3.357,1.587,18.127
0.128,-0.176,0.993,-5.249,0.061,10.437
0.122,-0.210,0.982,-4.333,-0.671,3.967
0.126,-0.245,0.970,-1.953,-2.197,0.610
0.137,-0.288,0.955,-0.977,-3.296,-1.953
0.151,-0.313,0.956,-0.122,-3.967,-1.648
0.151,-0.328,0.977,0.916,-4.944,0.488
0.148,-0.337,0.990,0.732,-4.761,2.380
0.144,-0.325,0.986,-1.221,-3.113,5.066
0.140,-0.264,0.965,-1.282,-1.587,8.545
0.134,-0.179,0.942,0.732,-1.648,9.827
0.126,-0.140,0.934,1.587,-3.235,7.141
0.116,-0.169,0.969,0.610,-4.822,1.770
0.107,-0.230,1.008,-0.732,-5.493,-4.456
0.114,-0.256,1.029,0.244,-4.333,-6.409
0.126,-0.277,1.021,-1.526,-1.648,-6.531
0.141,-0.305,0.998,-3.723,1.953,-6.958
0.149,-0.324,0.945,-4.028,3.357,-6.226
0.154,-0.298,0.941,-4.822,1.343,-4.822
0.160,-0.264,0.966,-5.981,-2.197,-3.113
0.149,-0.248,0.953,-7.263,-3.052,-2.502
0.150,-0.235,0.947,-8.606,-3.418,-2.869
0.145,-0.226,0.971,-8.423,-5.615,-3.601
0.145,-0.239,0.987,-10.681,-6.409,-4.211
0.143,-0.241,1.010,-18.677,-5.310,-4.272
0.144,-0.255,1.043,-30.823,-3.113,-5.066
0.144,-0.272,1.017,-34.302,1.343,-5.554
0.171,-0.264,1.053,-35.522,2.808,-4.089
0.177,-0.284,1.050,-40.222,5.005,-1.709
0.156,-0.282,0.993,-53.284,10.437,1.831
0.153,-0.254,0.974,-62.500,11.475,4.761
0.148,-0.226,0.995,-57.922,8.179,5.554
0.142,-0.197,1.022,-47.668,5.066,5.371
0.153,-0.178,1.041,-42.175,4.211,5.127
0.170,-0.122,1.030,-40.222,6.165,4.395
0.182,-0.102,1.004,-39.612,7.935,2.441
0.177,-0.166,0.971,-42.725,9.094,-1.892
0.170,-0.200,0.949,-45.105,8.301,-3.235
0.162,-0.138,0.944,-40.955,5.310,0.061
0.162,-0.071,1.020,-40.283,1.709,0.916
0.146,-0.084,1.049,-41.382,1.770,-3.052

-0.495,-2.412,1.107,13.123,-294.128,63.538
-0.705,-2.269,1.430,37.964,-304.321,154.114
-0.861,-1.756,1.082,73.853,-282.166,254.395
-0.818,-0.789,0.621,134.644,-280.029,348.145
-0.711,0.028,0.819,150.818,-315.430,394.653
-0.729,0.216,0.981,125.366,-328.369,384.888
-0.830,0.127,1.053,83.557,-310.181,355.164
-0.967,0.130,1.068,59.692,-291.321,336.121
-1.166,0.128,1.200,56.824,-283.325,315.369
-1.234,0.214,1.497,56.824,-279.175,290.649
-1.334,0.216,1.906,63.599,-268.127,264.709
-1.432,-0.172,2.294,62.073,-234.497,226.379
-1.516,-0.452,2.452,46.265,-179.932,197.388
-1.502,-0.443,2.705,39.734,-127.014,191.467
-1.475,-0.336,2.615,29.480,-56.335,190.430
-1.434,-0.248,2.404,-5.981,29.297,188.904
-1.309,-0.246,2.130,-37.415,107.178,178.101
-1.149,-0.305,1.604,-78.003,180.054,161.499
-0.972,-0.214,1.320,-105.652,215.271,143.127
-0.830,0.062,1.216,-117.065,223.389,123.718
-0.703,0.145,1.128,-128.357,228.638,91.797
-0.569,0.229,1.156,-137.329,230.103,56.519
-0.491,0.499,1.229,-137.329,233.398,27.039
-0.352,0.807,1.261,-124.939,241.394,-7.324
-0.306,0.878,1.351,-110.657,251.648,-56.396
-0.324,0.832,1.392,-105.103,271.240,-116.699
-0.400,0.623,1.236,-94.360,293.213,-170.227
-0.440,0.232,0.993,-54.993,302.368,-210.815
-0.423,-0.045,0.662,-56.641,301.331,-235.596
-0.302,-0.166,0.401,-78.430,292.847,-252.808
-0.241,-0.250,0.228,-78.857,268.372,-264.099
-0.161,-0.524,0.163,-78.003,235.046,-276.184
0.009,-0.795,0.109,-75.989,200.928,-270.325
0.181,-0.816,0.024,-64.941,170.105,-235.535
0.359,-0.708,0.023,-43.579,136.841,-192.688
0.504,-0.458,0.150,2.197,101.868,-154.724
0.431,-0.301,0.051,43.213,75.928,-132.080
0.437,-0.214,-0.017,25.452,63.171,-117.920
0.463,-0.098,-0.049,14.343,46.814,-106.812
0.389,-0.007,-0.103,17.090,21.912,-104.919
0.351,0.001,-0.132,14.771,-5.493,-112.305
0.341,-0.089,-0.148,9.521,-36.499,-124.268
0.325,-0.289,-0.148,2.869,-71.655,-136.841
0.316,-0.541,-0.141,-6.714,-109.131,-145.752
0.292,-0.807,-0.082,-19.043,-148.193,-144.165
0.203,-1.012,0.050,-32.898,-188.354,-128.174
0.099,-1.020,0.259,-46.753,-223.389,-99.670
-0.018,-0.995,0.554,-46.814,-252.258,-68.542
-0.160,-0.990,0.876,-30.579,-269.592,-39.551
-0.300,-0.934,1.178,-12.756,-270.813,-8.972
-0.414,-0.857,1.423,-4.089,-256.104,19.348
-0.490,-0.796,1.572,3.418,-233.398,44.067
-0.524,-0.706,1.722,13.245,-210.022,68.909
-0.542,-0.596,1.832,21.790,-185.730,93.140
-0.554,-0.478,1.880,18.311,-157.166,111.206
-0.545,-0.387,1.862,15.686,-128.418,118.347
-0.523,-0.382,1.829,22.583,-103.821,118.591
-0.475,-0.354,1.717,31.189,-79.102,117.981
-0.432,-0.278,1.554,34.241,-55.420,118.469
-0.414,-0.255,1.393,32.776,-36.377,114.990
-0.386,-0.251,1.304,22.522,-23.010,109.802
-0.368,-0.228,1.237,13.062,-15.137,105.957
-0.366,-0.140,1.190,4.028,-9.277,103.638
-0.354,-0.062,1.140,-0.671,-4.456,98.022
-0.342,-0.050,1.044,-0.610,-0.916,87.158
-0.328,-0.051,0.995,2.563,-1.831,75.989
-0.334,-0.106,1.000,1.831,-4.639,65.247
-0.325,-0.250,1.032,-3.174,-4.883,54.565
-0.305,-0.335,1.077,-5.066,-4.456,51.086
-0.279,-0.347,1.129,-1.160,-3.662,53.101
-0.268,-0.366,1.154,3.784,-0.427,53.467
-0.272,-0.422,1.105,4.089,6.165,53.955
-0.234,-0.496,1.052,-4.028,12.878,57.190
-0.194,-0.508,1.043,-6.104,14.221,62.866
-0.160,-0.415,1.033,-0.854,14.648,70.496
-0.143,-0.293,0.990,4.700,15.869,74.524
-0.141,-0.177,0.885,9.399,16.479,72.754
-0.124,-0.056,0.818,9.460,15.381,67.261
-0.108,-0.006,0.805,9.521,10.986,56.335
-0.097,-0.036,0.770,8.118,7.080,41.870
-0.095,-0.105,0.786,4.089,2.625,28.809
-0.119,-0.255,0.853,-0.183,-3.052,17.456
-0.126,-0.390,0.907,-3.235,-5.371,11.780
-0.112,-0.421,0.961,-4.333,-5.859,13.489
-0.093,-0.395,1.000,-1.465,-5.005,17.578
-0.089,-0.360,1.001,3.662,-2.441,20.996
-0.093,-0.318,0.966,8.362,1.770,22.522
-0.092,-0.282,0.905,13.184,4.944,22.644
-0.086,-0.249,0.871,14.648,4.333,20.630
-0.087,-0.201,0.858,13.489,2.014,17.517
-0.096,-0.176,0.840,13.428,-0.122,12.329
-0.111,-0.167,0.835,13.611,-2.197,6.287
-0.123,-0.221,0.858,10.498,-4.395,-0.671
-0.118,-0.286,0.878,5.188,-4.883,-5.920
-0.107,-0.350,0.891,2.930,-5.310,-7.935
-0.106,-0.436,0.904,2.441,-5.493,-8.301
-0.107,-0.485,0.955,0.183,-6.042,-5.493
-0.109,-0.459,0.991,-0.916,-5.615,0.000
-0.118,-0.428,0.991,-0.427,-4.028,5.066
-0.139,-0.394,0.986,-0.366,-2.747,7.751
-0.148,-0.347,0.987,0.305,-2.441,9.216
-0.151,-0.308,0.959,0.916,-2.075,8.545
-0.156,-0.281,0.949,1.953,-2.441,5.920
-0.152,-0.270,0.981,5.493,-3.906,2.747
-0.141,-0.295,0.963,6.104,-3.479,-1.770
-0.128,-0.321,0.932,3.906,-2.441,-5.066
-0.117,-0.358,0.920,2.869,-3.235,-6.226
-0.114,-0.401,0.946,3.113,-5.310,-6.409
-0.114,-0.426,0.979,2.930,-7.324,-5.371
-0.120,-0.447,0.996,1.282,-7.080,-3.113
-0.127,-0.455,1.007,-0.244,-6.470,-0.427
-0.140,-0.444,1.031,-1.038,-5.798,2.930
-0.145,-0.431,1.048,-2.014,-4.211,6.226
-0.152,-0.384,1.040,-2.686,-1.770,8.972
-0.156,-0.337,1.019,-2.747,0.244,9.949
-0.159,-0.303,1.004,-3.662,1.404,8.179
-0.160,-0.289,0.994,-3.723,1.892,4.578
-0.159,-0.288,0.972,-2.686,2.563,0.916
-0.147,-0.291,0.958,-2.014,2.686,-2.258

-0.586,0.702,1.637,5.554,18.311,-199.402
-0.735,0.768,1.861,4.333,37.842,-244.446
-0.972,0.402,2.094,-11.658,64.453,-301.575
-1.198,-0.120,2.407,-38.696,101.196,-361.023
-1.439,-0.822,2.631,-85.327,152.832,-396.729
-1.437,-1.440,2.739,-151.794,220.032,-394.470
-1.296,-1.579,2.811,-244.141,296.814,-349.609
-1.149,-1.529,2.370,-297.302,387.634,-288.330
-0.931,-1.495,1.630,-294.800,453.308,-235.474
-0.684,-1.443,0.912,-235.718,468.140,-177.307
-0.412,-1.390,0.320,-145.325,445.190,-116.882
-0.101,-1.127,-0.055,-46.875,394.653,-53.101
0.169,-1.002,-0.271,25.940,328.918,1.038
0.373,-1.189,-0.321,79.712,259.521,37.292
0.501,-1.395,-0.156,115.967,190.308,77.087
0.553,-1.498,-0.053,128.418,132.812,123.474
0.541,-1.525,0.031,152.832,83.435,171.204
0.369,-1.692,0.059,181.885,38.269,210.022
-0.015,-2.089,-0.109,234.497,-4.883,248.962
-0.429,-2.165,-0.242,317.627,-66.589,318.848
-0.632,-1.405,0.240,316.223,-140.503,423.645
-0.585,-0.250,0.381,265.747,-185.059,512.634
-0.391,0.976,0.461,236.023,-219.727,547.546
-0.203,1.639,0.666,200.806,-251.526,506.409
-0.080,1.573,0.888,144.165,-261.047,415.588
-0.042,1.308,0.749,93.506,-237.732,323.486
-0.105,0.721,0.394,72.021,-210.144,246.460
-0.151,0.462,0.163,76.111,-210.266,205.017
-0.213,0.650,0.324,113.403,-246.155,188.110
-0.313,0.850,0.493,156.799,-283.752,157.227
-0.449,0.914,0.612,184.631,-303.528,106.262
-0.597,0.685,0.621,192.139,-307.556,39.917
-0.716,0.403,0.632,194.153,-308.838,-21.484
-0.801,0.299,0.713,193.787,-312.744,-70.679
-0.892,0.237,0.959,194.519,-319.092,-117.676
-0.974,0.075,1.243,198.059,-318.176,-167.297
-1.080,-0.178,1.540,193.359,-302.551,-214.905
-1.117,-0.410,1.877,179.749,-272.034,-250.183
-1.128,-0.550,2.174,171.265,-224.487,-265.930
-1.091,-0.621,2.373,167.358,-160.461,-274.109
-1.099,-0.613,2.413,163.757,-80.566,-274.170
-1.068,-0.576,2.283,151.245,5.371,-269.165
-1.016,-0.515,2.146,134.338,92.285,-261.353
-1.014,-0.480,1.924,89.905,187.012,-255.615
-1.029,-0.510,1.411,26.489,280.273,-264.404
-0.928,-0.694,0.821,0.183,339.478,-291.565
-0.839,-1.017,0.455,-44.312,351.868,-312.317
-0.747,-1.369,0.247,-99.976,332.520,-304.749
-0.601,-1.528,0.148,-132.202,291.687,-266.846
-0.410,-1.441,0.217,-129.395,232.788,-202.087
-0.316,-1.143,0.337,-101.501,170.532,-132.812
-0.262,-0.791,0.476,-67.017,120.239,-79.712
-0.253,-0.610,0.633,-36.804,81.238,-52.917
-0.259,-0.605,0.740,-8.728,54.199,-41.382
-0.292,-0.625,0.804,11.475,36.560,-29.114
-0.275,-0.568,0.853,18.311,25.391,-12.939
-0.243,-0.521,0.929,11.597,14.893,-2.747
-0.234,-0.587,0.979,5.432,6.531,0.000
-0.232,-0.613,0.973,9.399,1.038,7.446
-0.230,-0.531,0.969,14.160,-3.235,21.240
-0.233,-0.442,1.003,15.991,-6.714,31.738
-0.235,-0.377,1.036,13.489,-7.751,37.415
-0.223,-0.307,1.016,11.658,-5.066,42.053
-0.210,-0.212,0.937,12.756,-1.953,45.654
-0.206,-0.160,0.892,14.954,-1.831,43.701
-0.215,-0.156,0.868,14.465,-4.333,37.415
-0.217,-0.125,0.857,14.404,-8.057,31.677
-0.222,-0.111,0.880,14.587,-13.245,25.818
-0.237,-0.142,0.919,12.268,-16.968,17.700
-0.247,-0.211,0.953,10.925,-18.311,9.277
-0.253,-0.290,0.981,11.169,-18.555,4.333
-0.255,-0.337,0.984,10.620,-16.296,3.601
-0.249,-0.339,0.975,12.085,-13.367,5.554
-0.243,-0.342,1.000,16.968,-11.902,7.751
-0.246,-0.325,1.023,18.921,-9.094,10.803
-0.240,-0.280,1.003,17.212,-3.723,13.733
-0.226,-0.254,0.965,13.672,1.709,14.343
-0.223,-0.254,0.904,8.789,5.493,13.062
-0.224,-0.232,0.823,6.287,5.615,10.132
-0.213,-0.198,0.832,5.066,1.038,6.592
-0.227,-0.247,0.883,4.578,-4.639,0.916
-0.233,-0.276,0.884,2.747,-6.042,-3.052
-0.228,-0.307,0.885,-0.671,-5.737,-4.028
-0.229,-0.371,0.919,-3.723,-5.859,-4.211
-0.233,-0.391,0.934,-5.615,-5.188,-1.465
-0.231,-0.366,0.946,-3.357,-4.639,2.991
-0.234,-0.339,0.954,0.549,-4.517,5.859
-0.245,-0.327,0.942,2.869,-4.089,6.897
-0.255,-0.313,0.932,5.432,-4.150,7.446
-0.266,-0.314,0.947,6.165,-4.944,7.019
-0.270,-0.297,0.945,5.615,-5.432,6.104
-0.270,-0.271,0.951,3.845,-5.188,5.676
-0.276,-0.288,0.942,2.869,-4.761,4.517
-0.274,-0.288,0.924,1.648,-4.639,3.662
-0.266,-0.281,0.913,1.404,-4.700,2.625
-0.273,-0.285,0.949,1.282,-5.981,0.916
-0.288,-0.301,0.976,1.343,-6.775,-0.305
-0.294,-0.310,0.973,0.305,-5.676,-0.793
-0.298,-0.314,0.984,-1.892,-4.761,-1.099
-0.296,-0.326,1.017,-4.272,-4.517,-1.282
-0.285,-0.319,0.996,-6.226,-1.831,-0.366
-0.273,-0.300,0.971,-6.775,1.038,0.122
-0.274,-0.309,0.962,-5.249,1.221,-0.488
-0.274,-0.297,0.945,-3.357,0.793,-0.854
-0.279,-0.280,0.964,-2.930,-0.854,-1.465
-0.279,-0.276,0.983,-2.686,-1.892,-2.930
-0.272,-0.296,0.977,-3.723,-0.488,-4.639
-0.256,-0.327,0.963,-6.836,1.282,-5.798
-0.244,-0.352,0.957,-8.789,2.075,-5.310
-0.234,-0.358,0.955,-7.446,1.404,-4.028
-0.234,-0.350,0.951,-5.371,0.793,-2.197
-0.240,-0.338,0.950,-4.395,-0.183,-1.038
-0.250,-0.320,0.972,-3.113,-1.587,0.183
-0.257,-0.318,0.984,-1.831,-1.831,-0.061
-0.262,-0.309,0.964,-2.075,-0.488,0.122
-0.258,-0.289,0.944,-1.648,0.305,0.122
-0.253,-0.286,0.949,0.000,-0.916,0.000
-0.247,-0.288,0.936,0.427,-0.793,-0.732
-0.245,-0.295,0.931,0.549,-0.732,-1.282

-0.766,-1.643,0.531,-12.146,-101.563,177.551
-0.738,-1.330,0.861,57.983,-155.884,259.705
-0.727,-0.933,1.144,109.070,-189.575,321.655
-0.736,-0.703,1.489,121.521,-194.397,354.309
-0.736,-0.546,1.880,101.196,-169.922,372.314
-0.757,-0.467,2.105,67.261,-125.183,381.470
-0.809,-0.385,2.065,35.767,-72.388,380.249
-0.871,-0.261,2.022,10.071,-26.917,369.995
-0.935,-0.181,2.031,-2.380,8.789,349.609
-0.961,-0.253,1.829,-21.606,51.941,318.970
-0.928,-0.270,1.467,-47.668,94.788,290.344
-0.801,-0.104,1.245,-62.378,116.516,269.531
-0.672,0.135,1.105,-64.697,122.681,246.643
-0.578,0.250,0.916,-65.430,126.282,213.989
-0.476,0.226,0.707,-76.965,127.319,175.842
-0.309,0.126,0.879,-85.632,115.967,141.602
-0.208,0.139,0.985,-89.355,110.901,112.000
-0.132,0.282,1.088,-92.712,114.197,82.581
-0.089,0.337,1.421,-92.834,112.122,47.058
-0.011,0.460,1.739,-95.154,122.803,10.132
-0.091,0.392,1.787,-91.125,151.733,-31.372
-0.073,0.385,1.608,-84.106,194.153,-73.547
-0.085,0.507,1.525,-28.748,212.769,-102.417
-0.167,0.826,1.536,-11.719,227.661,-131.165
-0.336,0.673,1.271,-1.770,260.376,-185.181
-0.390,0.340,0.807,5.066,296.387,-238.525
-0.532,0.292,0.436,-16.968,314.819,-273.315
-0.474,0.196,0.059,-70.862,309.448,-304.321
-0.275,-0.037,-0.249,-114.685,277.405,-331.665
-0.148,-0.253,-0.428,-129.456,229.614,-340.942
-0.032,-0.534,-0.508,-120.911,174.194,-331.909
0.155,-0.530,-0.491,-89.172,114.868,-301.331
0.315,-0.257,-0.429,-37.048,55.664,-257.751
0.371,0.024,-0.430,21.118,7.812,-224.426
0.373,0.117,-0.464,47.241,-28.076,-218.689
0.378,-0.019,-0.498,47.974,-62.012,-239.929
0.286,-0.366,-0.660,37.598,-98.511,-271.912
0.216,-0.750,-0.649,9.583,-142.029,-284.973
0.099,-1.078,-0.511,-2.258,-194.763,-280.823
-0.038,-1.372,-0.313,-8.545,-245.789,-260.132
-0.226,-1.627,-0.018,-19.470,-288.391,-222.473
-0.422,-1.760,0.322,-40.527,-317.566,-168.579
-0.595,-1.777,0.757,-56.580,-334.534,-109.253
-0.740,-1.788,1.158,-51.819,-338.684,-51.147
-0.865,-1.781,1.300,-35.217,-323.181,8.057
-0.962,-1.763,1.225,-25.513,-293.091,70.068
-1.018,-1.599,1.210,-8.789,-269.653,129.395
-1.108,-1.379,1.096,24.902,-260.132,185.791
-1.266,-1.286,1.178,42.969,-260.925,232.971
-1.344,-1.308,1.275,32.288,-257.263,267.822
-1.344,-1.241,1.369,10.376,-248.169,305.176
-1.177,-0.850,1.623,-8.911,-237.976,342.163
-0.958,-0.387,1.798,2.747,-222.107,358.215
-0.865,0.029,1.855,12.268,-187.012,347.534
-0.924,0.062,1.728,1.282,-137.329,311.890
-1.010,-0.165,1.589,-24.475,-89.233,267.029
-1.038,-0.271,1.551,-45.410,-53.528,239.197
-0.981,-0.147,1.499,-54.138,-20.386,223.755
-0.874,-0.128,1.318,-59.692,13.428,199.768
-0.743,-0.140,1.048,-74.463,45.410,167.664
-0.567,-0.157,1.103,-86.487,57.800,133.606
-0.474,-0.218,1.111,-92.468,65.491,99.060
-0.406,-0.259,1.119,-96.069,75.073,67.749
-0.369,-0.211,1.201,-88.684,79.834,42.847
-0.309,-0.159,1.270,-80.383,90.210,21.667
-0.260,-0.034,1.229,-76.965,108.032,2.136
-0.181,0.073,1.228,-79.651,125.000,-20.752
-0.127,-0.008,1.144,-84.839,141.052,-53.467
-0.143,-0.171,0.889,-92.407,158.997,-82.642
-0.150,-0.412,0.665,-98.816,163.940,-101.318
-0.090,-0.562,0.508,-97.717,155.762,-104.553
-0.005,-0.573,0.450,-87.585,138.000,-94.543
0.067,-0.502,0.487,-70.129,115.234,-81.116
0.108,-0.487,0.573,-49.927,93.750,-72.327
0.144,-0.490,0.602,-32.715,78.247,-65.369
0.175,-0.456,0.616,-21.484,64.514,-58.044
0.184,-0.427,0.680,-14.282,47.668,-52.551
0.148,-0.421,0.756,-9.155,32.593,-49.805
0.115,-0.419,0.786,-5.066,23.193,-47.485
0.089,-0.452,0.782,-4.517,18.433,-45.227
0.062,-0.505,0.804,-4.944,14.038,-42.053
0.033,-0.508,0.818,-3.296,9.827,-35.339
0.026,-0.492,0.831,-1.892,6.897,-26.611
0.004,-0.504,0.866,-3.357,3.723,-19.409
-0.006,-0.525,0.883,-7.629,2.808,-13.306
-0.001,-0.495,0.899,-10.193,2.502,-5.493
-0.000,-0.434,0.934,-8.667,0.305,1.404
-0.006,-0.383,0.976,-5.371,-1.953,4.028
-0.008,-0.345,0.991,-3.601,-2.319,3.784
-0.010,-0.355,0.970,-2.747,-0.183,1.709
-0.012,-0.383,0.932,0.122,1.648,-0.183
0.000,-0.341,0.913,3.113,1.526,0.549
0.009,-0.297,0.917,5.859,0.427,1.343
0.010,-0.327,0.891,7.507,0.244,-1.282
0.016,-0.352,0.865,8.545,-0.793,-3.418
0.017,-0.374,0.881,8.179,-4.211,-4.639
0.007,-0.422,0.947,6.165,-8.057,-5.798
-0.006,-0.466,0.997,5.981,-9.888,-5.432
-0.013,-0.470,1.013,6.531,-8.667,-3.113
-0.018,-0.481,1.025,6.470,-6.897,-0.366
-0.016,-0.489,1.003,4.028,-4.089,1.526
-0.006,-0.451,0.964,3.235,-2.441,4.333
-0.003,-0.428,0.956,5.493,-3.723,5.859
-0.010,-0.412,0.949,7.263,-5.249,6.226
-0.017,-0.390,0.939,7.568,-7.019,5.676
-0.028,-0.382,0.942,7.324,-9.644,4.578
-0.038,-0.383,0.947,8.301,-11.841,2.930
-0.056,-0.381,0.964,10.193,-13.672,1.648
-0.076,-0.402,1.006,9.827,-14.832,0.122
-0.070,-0.449,1.031,7.324,-13.123,-0.732
-0.063,-0.449,1.004,5.981,-8.850,0.427
-0.062,-0.432,0.980,6.714,-5.920,2.563
-0.059,-0.401,0.968,8.972,-5.127,3.601
-0.056,-0.375,0.954,7.935,-4.822,3.479
-0.053,-0.377,0.950,5.432,-4.822,1.587
-0.053,-0.388,0.957,4.211,-4.761,-0.305
-0.053,-0.398,0.967,4.517,-4.456,-1.465
-0.045,-0.402,0.961,4.089,-3.418,-1.648
-0.034,-0.410,0.946,2.014,-1.648,-1.648

-0.255,0.455,1.683,-34.973,211.365,-131.836
-0.350,0.313,1.505,-30.273,236.816,-190.002
-0.355,0.184,1.343,-37.964,260.742,-242.737
-0.639,-0.097,0.987,-44.006,280.701,-290.894
-0.571,-0.540,0.458,-82.092,294.434,-321.838
-0.300,-0.607,0.164,-120.911,277.344,-312.744
-0.130,-0.630,0.025,-143.860,247.864,-287.781
0.051,-0.604,-0.059,-131.531,215.149,-262.207
0.158,-0.585,-0.208,-98.755,183.167,-228.210
0.294,-0.440,-0.358,-84.167,148.437,-190.430
0.395,-0.187,-0.343,-59.448,97.717,-161.316
0.484,0.006,-0.296,-22.034,43.457,-150.330
0.528,0.146,-0.327,14.526,1.953,-145.935
0.565,0.161,-0.539,41.443,-26.306,-152.893
0.537,0.064,-0.771,58.411,-60.364,-170.959
0.466,-0.027,-0.960,62.317,-107.483,-192.627
0.354,-0.289,-1.071,52.734,-164.734,-218.384
0.188,-0.843,-1.056,29.846,-227.112,-237.854
-0.047,-1.336,-0.876,-1.892,-289.185,-231.628
-0.338,-1.655,-0.497,-29.236,-349.854,-195.740
-0.666,-1.972,0.036,-44.983,-398.682,-143.799
-0.915,-2.247,0.693,-49.866,-425.476,-80.566
-1.092,-2.225,1.131,-37.292,-423.218,3.052
-1.263,-1.761,1.498,-8.362,-405.518,101.685
-1.424,-1.337,1.655,39.856,-383.362,174.561
-1.556,-1.242,1.812,77.209,-360.046,207.275
-1.656,-1.291,1.843,87.524,-329.895,226.013
-1.639,-1.310,1.885,71.777,-293.457,247.314
-1.495,-1.248,1.834,53.650,-256.836,274.170
-1.225,-0.908,1.756,32.593,-214.417,301.086
-1.066,-0.578,1.800,17.517,-177.307,312.805
-0.969,-0.501,1.586,-4.272,-128.601,300.232
-0.940,-0.444,1.423,-35.706,-80.811,284.424
-0.976,-0.505,1.525,-53.711,-56.274,266.846
-0.979,-0.555,1.560,-78.125,-25.818,249.084
-0.882,-0.563,1.566,-105.896,10.742,232.849
-0.764,-0.448,1.388,-123.718,48.340,214.539
-0.685,-0.339,1.202,-126.282,75.684,189.087
-0.588,-0.230,1.140,-124.329,90.759,156.982
-0.466,-0.002,1.108,-121.216,104.858,121.094
-0.412,0.082,1.015,-110.474,119.141,77.698
-0.382,0.129,0.976,-99.182,129.639,36.194
-0.282,0.219,1.085,-91.919,131.104,3.113
-0.147,0.355,1.246,-84.412,128.601,-24.414
0.039,0.523,1.360,-69.336,125.671,-55.237
0.045,0.318,1.473,-48.035,127.869,-104.431
0.061,0.127,1.430,-28.320,148.804,-152.405
0.036,0.024,1.448,-25.879,177.612,-180.664
-0.042,-0.049,1.427,-25.024,212.036,-200.867
-0.093,-0.153,1.051,4.333,255.676,-218.506
-0.165,-0.393,0.590,-9.766,294.495,-240.051
-0.243,-0.750,0.329,-50.598,313.477,-265.137
-0.234,-1.064,0.109,-96.802,306.580,-267.395
-0.081,-1.193,-0.092,-122.498,277.893,-231.567
0.054,-1.148,-0.292,-112.000,232.239,-174.500
0.167,-0.958,-0.353,-74.463,166.931,-119.263
0.268,-0.717,-0.156,-24.048,86.121,-78.247
0.346,-0.530,0.234,15.503,10.132,-57.556
0.344,-0.451,0.581,35.950,-37.231,-52.673
0.304,-0.403,0.792,37.903,-50.232,-52.551
0.249,-0.397,0.909,27.588,-40.894,-52.795
0.185,-0.466,0.876,14.648,-20.325,-54.993
0.119,-0.582,0.783,0.793,-3.662,-54.565
0.083,-0.662,0.733,-8.240,-0.061,-47.913
0.071,-0.657,0.758,-5.310,-8.179,-35.645
0.074,-0.595,0.830,3.174,-20.508,-22.217
0.081,-0.552,0.909,10.132,-28.137,-13.733
0.074,-0.569,0.960,13.062,-29.358,-9.338
0.086,-0.551,0.939,15.198,-25.269,-4.761
0.100,-0.490,0.891,16.785,-21.118,1.038
0.119,-0.444,0.865,17.212,-20.081,3.540
0.129,-0.398,0.889,12.817,-21.790,2.991
0.120,-0.372,0.919,9.155,-22.644,0.854
0.112,-0.380,0.905,8.911,-21.912,-2.686
0.111,-0.390,0.875,9.033,-20.691,-5.676
0.100,-0.411,0.884,6.226,-21.729,-8.789
0.078,-0.467,0.937,5.615,-25.818,-13.184
0.049,-0.525,0.994,5.432,-28.320,-15.381
0.024,-0.594,1.036,4.211,-27.161,-15.198
0.023,-0.620,1.061,4.395,-23.254,-11.536
0.022,-0.611,1.047,5.249,-17.822,-5.981
0.027,-0.610,1.017,6.165,-13.489,-1.587
0.032,-0.622,1.016,6.714,-11.230,2.441
0.025,-0.626,1.022,3.540,-9.460,6.409
0.032,-0.608,1.005,1.282,-6.470,11.292
0.034,-0.567,0.966,3.296,-4.456,16.357
0.043,-0.508,0.941,5.188,-4.150,20.630
0.040,-0.456,0.942,5.188,-5.127,22.583
0.024,-0.443,0.965,6.348,-6.775,20.752
0.025,-0.429,0.982,7.019,-7.446,18.372
0.023,-0.422,0.981,5.676,-5.615,16.052
0.026,-0.434,0.963,3.967,-2.441,12.634
0.039,-0.438,0.943,2.197,0.366,10.071
0.051,-0.448,0.913,0.793,2.136,8.545
0.040,-0.497,0.905,-1.526,2.197,5.798
0.046,-0.539,0.917,-2.075,0.305,3.601
0.050,-0.551,0.937,-0.671,-1.526,4.822
0.047,-0.536,0.931,-0.122,-0.122,8.240
0.058,-0.503,0.911,0.183,1.892,11.169
0.070,-0.467,0.896,-0.427,2.991,13.000
0.075,-0.449,0.869,-0.183,3.235,12.756
0.076,-0.423,0.845,0.000,2.747,11.841
0.078,-0.393,0.840,0.671,0.732,10.071
0.079,-0.383,0.834,1.404,-1.587,6.836
0.079,-0.399,0.855,1.221,-3.662,2.747
0.070,-0.441,0.875,1.099,-4.822,-0.793
0.066,-0.457,0.887,3.113,-4.761,-2.014
0.064,-0.462,0.904,5.066,-4.639,-1.709
0.059,-0.492,0.911,5.127,-4.272,-1.770
0.061,-0.510,0.916,2.319,-3.357,-1.038
0.062,-0.530,0.916,-0.122,-1.404,0.305
0.067,-0.507,0.889,-1.282,0.244,2.991
0.077,-0.461,0.888,-0.122,-1.282,5.188
0.078,-0.449,0.902,0.427,-3.296,4.456
0.075,-0.444,0.899,1.160,-3.845,2.808
0.064,-0.456,0.916,0.854,-4.517,1.099
0.056,-0.472,0.936,1.892,-5.554,-0.732
0.052,-0.476,0.939,1.953,-5.005,-0.549
0.051,-0.492,0.937,1.404,-4.333,-1.160

-1.135,0.162,1.874,103.027,-77.271,-287.048
-1.237,0.014,1.890,113.770,-24.048,-331.787
-1.357,-0.369,1.995,113.464,35.217,-376.831
-1.448,-0.745,2.122,97.595,106.934,-409.180
-1.429,-1.067,1.970,66.895,192.444,-427.246
-1.370,-1.306,1.746,32.043,264.038,-426.086
-1.333,-1.395,1.574,-24.414,308.411,-398.743
-1.293,-1.354,1.456,-121.216,343.445,-363.586
-1.269,-1.419,1.439,-205.383,362.061,-338.928
-1.343,-1.367,1.152,-215.271,372.314,-306.335
-1.167,-1.138,0.798,-226.379,365.479,-247.986
-0.949,-0.905,0.658,-166.931,320.984,-191.345
-0.783,-0.816,0.761,-75.012,260.254,-148.499
-0.671,-0.830,0.995,-3.113,218.445,-111.084
-0.583,-0.917,1.204,45.044,201.050,-74.158
-0.484,-0.984,1.231,80.994,201.355,-33.508
-0.386,-0.961,1.144,104.919,209.961,9.949
-0.291,-0.908,0.947,114.197,220.703,53.345
-0.208,-0.911,0.675,122.620,223.633,91.553
-0.134,-0.867,0.448,125.671,213.318,125.916
-0.048,-0.856,0.291,131.592,189.270,156.128
-0.011,-0.961,0.080,135.071,156.738,181.152
-0.026,-1.050,-0.174,138.184,118.530,209.961
-0.113,-1.088,-0.227,170.837,61.951,244.629
-0.202,-1.207,-0.275,198.486,-2.258,279.236
-0.341,-1.215,-0.402,214.294,-63.904,320.740
-0.497,-1.044,-0.262,210.022,-132.141,370.544
-0.540,-0.698,0.284,175.232,-194.885,413.330
-0.502,-0.254,0.390,143.921,-231.750,441.772
-0.470,0.161,0.300,118.530,-259.155,447.754
-0.399,0.355,0.292,99.487,-292.297,420.593
-0.335,0.380,0.450,103.821,-337.524,378.052
-0.365,0.330,0.857,136.719,-382.446,335.083
-0.403,0.332,1.347,145.020,-405.579,306.335
-0.373,0.420,1.217,130.798,-370.850,287.537
-0.313,0.540,1.096,102.234,-327.087,260.864
-0.322,0.700,1.135,93.872,-305.664,225.952
-0.367,0.844,1.065,101.990,-279.480,179.260
-0.419,0.947,0.922,97.961,-244.019,121.033
-0.486,0.704,0.856,101.440,-219.177,46.143
-0.593,0.268,0.689,127.563,-202.759,-33.691
-0.676,0.007,0.591,155.945,-192.139,-92.957
-0.701,-0.072,0.783,179.565,-193.665,-133.728
-0.683,-0.161,1.114,202.271,-191.895,-173.523
-0.660,-0.441,1.352,216.431,-171.692,-215.515
-0.714,-0.938,1.303,214.844,-129.028,-247.864
-0.796,-1.420,1.153,197.266,-84.839,-255.249
-0.842,-1.706,1.081,171.692,-58.655,-232.788
-0.796,-1.872,1.128,130.859,-42.786,-193.542
-0.707,-1.903,1.215,71.777,-18.311,-144.775
-0.634,-1.763,1.180,6.470,19.836,-90.515
-0.546,-1.583,0.948,-56.335,67.505,-41.626
-0.453,-1.287,0.729,-101.013,99.121,-1.770
-0.416,-0.973,0.606,-115.845,103.516,26.978
-0.407,-0.741,0.536,-110.962,92.773,39.856
-0.406,-0.560,0.498,-89.783,74.219,43.701
-0.390,-0.413,0.525,-66.528,53.406,42.175
-0.380,-0.311,0.600,-46.936,36.438,34.912
-0.360,-0.306,0.632,-32.410,25.696,22.339
-0.349,-0.425,0.641,-26.611,18.005,6.714
-0.368,-0.562,0.635,-23.010,10.010,-3.906
-0.391,-0.690,0.648,-24.414,1.953,-6.775
-0.406,-0.836,0.724,-31.128,-6.836,-5.493
-0.447,-0.902,0.875,-38.269,-13.550,1.648
-0.472,-0.836,0.971,-39.490,-11.292,15.076
-0.481,-0.775,0.943,-40.222,-1.526,25.269
-0.484,-0.704,0.869,-42.114,7.935,31.006
-0.469,-0.659,0.851,-41.748,11.597,33.081
-0.462,-0.588,0.882,-41.199,13.855,33.630
-0.457,-0.492,0.876,-40.771,18.982,33.447
-0.444,-0.447,0.785,-42.297,27.466,30.701
-0.408,-0.437,0.723,-45.227,32.166,25.452
-0.373,-0.391,0.701,-42.542,31.250,21.423
-0.335,-0.379,0.691,-39.307,28.748,16.479
-0.312,-0.417,0.696,-38.696,24.963,10.071
-0.314,-0.502,0.689,-41.748,21.057,5.554
-0.310,-0.633,0.725,-54.077,17.456,3.906
-0.262,-0.497,0.755,-101.563,15.381,9.521
-0.341,-0.498,0.970,-153.870,15.564,14.221
-0.325,-0.579,0.866,-88.867,18.982,11.414
-0.330,-0.509,0.755,-77.820,28.381,19.104
-0.354,-0.489,0.854,-74.890,24.536,22.705
-0.359,-0.434,0.919,-69.031,23.010,22.827
-0.349,-0.337,0.877,-61.157,27.832,21.606
-0.330,-0.311,0.807,-50.293,29.907,15.991
-0.304,-0.338,0.765,-41.870,27.832,8.728
-0.268,-0.289,0.739,-36.011,23.010,4.944
-0.246,-0.258,0.716,-25.391,15.930,0.732
-0.250,-0.322,0.701,-10.681,6.348,-6.165
-0.260,-0.410,0.725,-0.610,-3.296,-10.559
-0.260,-0.436,0.794,7.141,-11.963,-9.644
-0.291,-0.483,0.896,10.742,-18.188,-8.179
-0.321,-0.564,0.944,9.155,-17.883,-6.836
-0.347,-0.605,0.960,5.188,-14.038,-2.808
-0.357,-0.570,1.007,1.282,-11.841,2.686
-0.368,-0.522,1.010,-1.038,-7.446,7.690
-0.366,-0.490,0.945,-2.502,-1.099,10.376
-0.356,-0.416,0.906,-1.343,1.770,12.085
-0.345,-0.348,0.874,0.732,2.441,11.536
-0.344,-0.353,0.837,2.258,2.563,6.958
-0.339,-0.405,0.868,2.686,-0.610,1.404
-0.332,-0.455,0.905,2.625,-2.747,-1.709
-0.317,-0.461,0.903,3.357,-1.038,-1.526
-0.297,-0.437,0.897,4.333,0.488,0.488
-0.278,-0.427,0.846,4.089,2.136,1.770
-0.284,-0.461,0.811,3.906,0.916,2.075
-0.300,-0.496,0.868,3.906,-4.211,2.502
-0.316,-0.495,0.901,4.272,-6.775,4.700
-0.330,-0.498,0.907,3.906,-6.042,6.592
-0.335,-0.481,0.918,3.967,-5.432,8.240
-0.340,-0.441,0.915,4.883,-4.272,9.338
-0.340,-0.394,0.903,5.554,-3.052,9.094
-0.332,-0.384,0.872,5.310,-1.587,6.836
-0.314,-0.403,0.839,5.920,-1.343,3.906
-0.299,-0.465,0.818,7.202,-2.563,2.319
-0.307,-0.509,0.840,6.592,-4.944,2.930
-0.306,-0.496,0.891,3.662,-7.202,6.104
-0.300,-0.513,0.879,1.160,-6.836,8.301
-0.308,-0.518,0.835,2.014,-6.042,10.925

-1.061,0.864,1.153,120.789,-20.020,-232.605
-1.339,0.799,1.320,140.076,-8.423,-296.631
-1.584,0.887,1.595,140.076,12.634,-357.178
-1.713,0.641,2.035,97.473,58.411,-425.171
-1.887,-0.076,2.244,87.036,129.639,-511.230
-2.145,-0.704,2.261,88.623,226.501,-575.745
-2.272,-1.296,1.974,91.125,315.430,-604.187
-2.142,-1.744,1.748,56.519,375.610,-598.022
-2.083,-2.102,1.753,-16.357,417.786,-558.655
-1.894,-2.421,1.811,-105.408,464.355,-492.310
-1.834,-2.615,1.344,-147.827,521.729,-393.250
-1.489,-2.321,0.673,-177.490,552.063,-256.531
-1.024,-1.444,0.418,-157.837,511.230,-111.084
-0.660,-0.787,0.375,-78.491,440.674,-19.897
-0.416,-0.677,0.381,-9.583,382.751,7.751
-0.251,-0.928,0.324,35.889,338.562,13.245
-0.078,-0.958,0.249,73.914,296.265,41.077
0.088,-0.713,0.229,99.426,252.808,86.609
0.172,-0.628,0.166,118.286,214.844,115.784
0.226,-0.856,0.072,121.216,180.542,126.099
0.230,-1.088,0.052,120.422,140.320,142.395
0.185,-1.131,0.170,140.442,92.834,177.612
0.066,-1.238,0.230,174.438,52.185,214.294
-0.105,-1.604,-0.032,227.478,18.188,245.667
-0.404,-1.769,-0.145,301.392,-32.654,295.776
-0.824,-2.084,-0.094,307.556,-94.971,364.807
-1.221,-2.016,-0.237,265.747,-141.174,453.857
-1.310,-1.010,-0.240,192.627,-198.425,571.899
-1.088,0.138,0.246,177.429,-294.128,649.170
-0.912,0.785,0.775,170.654,-383.667,645.508
-0.648,1.266,1.094,121.948,-414.551,597.839
-0.429,1.786,1.709,88.623,-422.363,537.537
-0.228,1.802,1.743,72.144,-385.803,447.632
-0.158,1.432,1.276,46.326,-291.138,329.285
-0.206,0.907,0.763,33.813,-232.727,231.384
-0.289,0.657,0.359,52.917,-218.140,171.448
-0.405,0.584,0.290,101.074,-241.699,129.150
-0.503,0.512,0.451,148.804,-273.315,86.853
-0.605,0.426,0.632,190.491,-291.504,41.077
-0.681,0.228,0.760,219.299,-294.006,-6.714
-0.696,0.013,0.936,229.614,-283.569,-52.979
-0.691,-0.222,1.246,223.572,-266.174,-93.079
-0.693,-0.410,1.484,211.060,-234.253,-122.314
-0.764,-0.528,1.506,198.669,-184.326,-140.503
-0.847,-0.601,1.441,178.406,-129.822,-155.701
-0.883,-0.589,1.438,158.936,-82.153,-168.640
-0.961,-0.543,1.595,144.531,-45.288,-185.913
-1.054,-0.598,1.672,132.446,-9.399,-206.787
-1.035,-0.714,1.511,119.080,30.518,-219.055
-0.942,-0.855,1.274,100.342,69.336,-222.229
-0.780,-1.018,1.013,69.519,104.980,-217.407
-0.612,-1.184,0.823,18.799,135.010,-208.130
-0.496,-1.255,0.741,-35.461,151.917,-191.650
-0.412,-1.321,0.721,-85.632,153.503,-170.410
-0.366,-1.308,0.712,-112.488,145.447,-143.555
-0.366,-1.159,0.714,-112.915,129.700,-108.154
-0.351,-0.977,0.714,-98.267,112.549,-73.242
-0.366,-0.742,0.725,-76.294,94.360,-44.189
-0.367,-0.491,0.767,-53.345,76.599,-24.292
-0.361,-0.371,0.804,-37.415,63.171,-18.677
-0.353,-0.366,0.790,-26.123,56.824,-24.292
-0.345,-0.466,0.744,-17.944,50.964,-31.311
-0.320,-0.616,0.721,-18.860,44.250,-36.011
-0.288,-0.656,0.777,-20.874,33.264,-32.959
-0.285,-0.651,0.894,-19.226,18.982,-23.376
-0.304,-0.675,0.957,-18.677,10.742,-14.221
-0.295,-0.710,0.971,-24.170,10.986,-5.432
-0.278,-0.651,0.981,-29.053,14.526,7.446
-0.270,-0.522,0.972,-30.212,19.104,21.240
-0.281,-0.354,0.966,-30.212,24.841,31.616
-0.331,-0.232,0.966,-28.198,28.809,35.583
-0.363,-0.158,0.907,-25.635,32.776,29.541
-0.369,-0.122,0.845,-25.513,37.354,20.630
-0.355,-0.110,0.744,-23.254,39.246,12.329
-0.359,-0.227,0.679,-18.982,33.752,0.244
-0.358,-0.393,0.731,-17.822,21.240,-9.949
-0.366,-0.461,0.876,-19.531,8.484,-12.329
-0.360,-0.480,1.008,-22.766,3.479,-9.094
-0.346,-0.438,1.060,-25.208,8.057,-4.211
-0.336,-0.400,1.059,-24.414,17.273,1.099
-0.314,-0.440,0.996,-22.827,26.550,4.028
-0.279,-0.405,0.916,-24.658,34.241,7.019
-0.270,-0.279,0.971,-34.607,36.438,11.108
-0.281,-0.141,0.976,-36.255,39.490,12.329
-0.267,-0.080,0.968,-30.945,43.091,3.723
-0.283,-0.112,0.919,-31.067,49.011,-7.812
-0.284,-0.270,0.852,-36.926,53.528,-20.874
-0.251,-0.312,0.832,-40.405,51.147,-25.757
-0.216,-0.243,0.889,-39.246,43.274,-23.987
-0.210,-0.253,0.911,-38.940,39.551,-25.879
-0.227,-0.306,0.858,-38.574,41.016,-29.480
-0.237,-0.371,0.848,-41.382,40.283,-29.053
-0.250,-0.396,0.939,-40.100,33.936,-24.475
-0.253,-0.412,0.995,-35.645,31.189,-17.761
-0.234,-0.327,1.032,-32.410,33.081,-9.888
-0.244,-0.221,1.123,-30.518,37.292,-4.578
-0.250,-0.233,1.097,-27.771,45.776,-5.798
-0.244,-0.246,0.980,-31.372,57.190,-7.324
-0.222,-0.248,0.875,-38.086,62.988,-7.202
-0.196,-0.188,0.820,-36.804,58.105,-6.104
-0.175,-0.112,0.815,-30.640,47.424,-6.409
-0.168,-0.108,0.814,-24.109,36.072,-10.864
-0.145,-0.199,0.867,-18.494,24.780,-17.334
-0.192,-0.300,0.955,-16.846,16.052,-21.667
-0.183,-0.386,0.936,-20.325,12.634,-19.226
-0.172,-0.316,1.037,-14.160,5.493,-8.789
-0.176,-0.254,1.032,-10.132,4.883,-2.014
-0.175,-0.208,1.050,-6.714,4.700,1.160
-0.182,-0.215,1.038,-5.005,4.578,1.038
-0.183,-0.230,1.045,-4.028,4.822,0.610
-0.184,-0.208,1.064,-1.221,4.883,1.648
-0.176,-0.197,1.057,-0.366,6.897,2.136
-0.159,-0.208,1.024,-0.244,9.155,1.892
-0.143,-0.266,0.990,-1.648,10.742,1.709
-0.137,-0.295,0.957,-3.906,10.315,3.784
-0.127,-0.235,0.938,-2.991,7.080,8.667
-0.130,-0.194,0.948,0.977,2.197,11.963
-0.137,-0.181,0.959,4.456,-2.258,11.780
-0.144,-0.226,0.986,6.714,-5.859,10.620

-0.550,0.641,1.647,42.786,-50.659,-187.378
-0.761,0.628,1.926,24.780,-26.184,-242.371
-0.950,0.538,2.192,-8.850,7.690,-301.758
-1.089,0.316,2.320,-69.824,56.091,-357.971
-1.160,-0.060,2.333,-124.207,106.018,-407.410
-1.197,-0.641,2.311,-180.542,148.682,-450.745
-1.074,-1.214,2.412,-227.173,183.289,-475.159
-1.076,-1.848,2.336,-227.295,217.896,-455.261
-0.843,-2.129,2.006,-199.036,257.324,-373.291
-0.578,-1.774,1.601,-123.474,280.884,-246.704
-0.396,-1.117,1.279,-65.247,284.851,-130.676
-0.286,-0.672,1.088,-45.105,278.503,-66.223
-0.204,-0.525,0.937,-43.945,271.545,-47.180
-0.126,-0.542,0.769,-37.598,263.123,-44.189
-0.063,-0.840,0.496,-10.803,250.610,-40.894
0.032,-1.028,0.325,28.320,225.037,-20.752
0.103,-0.907,0.417,65.002,186.218,17.761
0.155,-0.868,0.623,90.698,152.283,49.255
0.161,-1.136,0.681,113.281,133.606,70.068
0.152,-1.304,0.530,129.150,124.817,104.553
0.135,-1.308,0.250,140.625,109.131,152.710
0.049,-1.278,0.007,168.579,73.120,201.538
-0.072,-1.247,-0.120,218.567,17.151,250.244
-0.240,-1.203,-0.048,260.498,-45.593,298.340
-0.439,-1.390,0.173,234.253,-92.041,341.003
-0.557,-1.122,0.302,186.218,-121.094,400.391
-0.580,-0.432,0.057,189.209,-151.489,465.820
-0.622,0.130,-0.047,206.787,-208.862,494.080
-0.617,0.190,0.241,188.110,-278.442,476.868
-0.574,0.346,1.055,153.198,-334.473,458.984
-0.691,0.489,0.892,138.916,-333.801,446.777
-0.731,0.397,0.800,107.178,-309.509,419.250
-0.690,0.510,0.965,87.585,-307.800,403.687
-0.580,0.695,0.929,49.866,-279.053,386.230
-0.437,0.876,0.830,15.137,-240.601,344.177
-0.341,0.980,0.927,8.911,-222.534,283.508
-0.310,0.960,1.001,14.343,-207.153,209.167
-0.327,0.841,1.002,18.860,-185.486,131.714
-0.372,0.564,1.082,15.747,-162.231,65.369
-0.417,0.150,1.090,18.799,-137.207,15.930
-0.439,-0.116,0.978,32.593,-111.633,-8.362
-0.414,-0.094,0.999,54.199,-99.365,-12.146
-0.328,0.151,1.165,79.773,-95.581,-14.526
-0.239,0.303,1.258,101.196,-83.130,-33.569
-0.229,0.276,1.178,115.112,-62.988,-67.139
-0.293,0.103,1.054,122.498,-49.805,-99.304
-0.352,-0.029,0.920,124.573,-46.753,-120.361
-0.359,-0.029,0.955,119.751,-54.138,-133.911
-0.376,-0.071,1.057,110.962,-60.791,-152.283
-0.410,-0.223,1.134,101.440,-62.500,-179.138
-0.443,-0.383,1.223,93.262,-60.364,-203.430
-0.434,-0.490,1.345,82.214,-56.274,-219.116
-0.448,-0.666,1.424,70.313,-47.668,-231.079
-0.505,-0.921,1.476,52.856,-32.104,-239.929
-0.573,-1.234,1.528,29.663,-14.526,-234.985
-0.542,-1.390,1.523,1.343,8.606,-210.083
-0.482,-1.354,1.465,-15.076,32.227,-168.945
-0.425,-1.149,1.344,-17.212,50.598,-124.756
-0.387,-0.841,1.222,-19.531,64.636,-88.074
-0.360,-0.602,1.085,-19.836,73.242,-66.284
-0.330,-0.402,0.958,-19.409,74.768,-56.519
-0.295,-0.231,0.859,-18.982,68.420,-55.542
-0.258,-0.115,0.875,-16.663,54.993,-63.049
-0.262,-0.135,0.958,-13.062,41.992,-77.393
-0.295,-0.373,0.981,-18.127,39.124,-93.201
-0.285,-0.573,0.946,-33.691,44.189,-98.145
-0.224,-0.616,0.928,-52.063,48.462,-88.013
-0.181,-0.612,0.950,-59.326,48.767,-72.754
-0.151,-0.526,0.981,-56.335,46.082,-57.983
-0.153,-0.469,1.000,-52.795,45.410,-46.204
-0.185,-0.456,0.997,-48.035,45.898,-39.063
-0.206,-0.382,0.983,-40.405,46.631,-31.067
-0.233,-0.275,0.972,-32.898,48.096,-22.705
-0.245,-0.184,0.948,-30.273,50.476,-19.592
-0.260,-0.091,0.905,-31.067,51.941,-20.874
-0.265,-0.041,0.837,-33.569,52.490,-25.452
-0.247,-0.066,0.822,-37.598,50.903,-33.752
-0.255,-0.198,0.870,-41.443,45.532,-43.640
-0.239,-0.329,0.929,-44.556,41.199,-49.927
-0.251,-0.385,0.917,-43.091,38.208,-47.241
-0.223,-0.363,0.965,-44.067,32.959,-38.208
-0.218,-0.359,1.089,-41.382,26.978,-28.320
-0.219,-0.347,1.109,-39.429,29.602,-20.508
-0.178,-0.215,1.120,-34.912,35.645,-10.803
-0.198,-0.111,1.149,-27.527,40.710,-6.897
-0.199,-0.076,1.076,-30.518,50.842,-9.766
-0.192,-0.047,1.042,-29.236,57.251,-12.634
-0.202,-0.114,0.935,-23.010,60.425,-19.531
-0.199,-0.188,0.812,-18.066,59.021,-23.621
-0.172,-0.196,0.779,-11.536,47.241,-20.935
-0.160,-0.211,0.796,-2.441,30.762,-16.602
-0.134,-0.222,0.801,0.793,18.188,-12.695
-0.115,-0.181,0.843,0.122,5.981,-8.057
-0.120,-0.143,0.961,-2.625,-5.188,-5.920
-0.141,-0.151,1.063,-4.333,-10.620,-5.859
-0.175,-0.195,1.116,-4.150,-9.094,-5.981
-0.192,-0.198,1.157,-2.869,-5.310,-4.333
-0.199,-0.167,1.128,0.977,-0.488,-1.160
-0.195,-0.153,1.057,3.906,5.127,1.099
-0.188,-0.119,1.040,4.883,5.920,2.075
-0.184,-0.098,1.016,3.845,5.432,1.709
-0.173,-0.103,0.969,2.136,6.226,0.244
-0.160,-0.123,0.971,1.160,4.578,-1.099
-0.145,-0.121,0.984,1.404,2.136,-1.770
-0.133,-0.117,0.990,1.221,0.793,-2.075
-0.139,-0.169,0.992,1.282,-0.793,-3.235
-0.129,-0.208,1.001,1.160,-1.892,-2.441
-0.128,-0.203,1.020,2.136,-2.686,0.916
-0.131,-0.181,1.024,3.418,-2.747,3.662
-0.144,-0.163,1.027,3.052,-2.930,4.822
-0.148,-0.127,1.019,2.319,-2.563,5.127
-0.152,-0.104,1.051,1.282,-2.441,4.272
-0.159,-0.102,1.046,1.282,-1.404,1.831
-0.167,-0.099,1.045,1.831,0.122,-0.366
-0.175,-0.122,1.024,3.357,0.793,-2.258
-0.163,-0.133,1.007,2.747,1.587,-3.296
-0.155,-0.134,0.999,2.441,1.465,-3.540
-0.146,-0.126,0.992,3.601,0.977,-3.662
-0.142,-0.124,0.990,5.493,0.061,-3.662

-0.692,-0.391,1.502,120.667,-126.404,-92.163
-0.645,-0.437,1.404,122.620,-92.102,-105.530
-0.667,-0.417,1.405,110.046,-67.749,-120.728
-0.689,-0.310,1.565,94.849,-50.476,-136.047
-0.745,-0.248,1.567,79.041,-26.245,-155.945
-0.807,-0.239,1.524,55.603,5.676,-176.086
-0.769,-0.184,1.531,49.561,27.283,-194.336
-0.763,0.045,1.479,44.312,48.706,-209.167
-0.729,0.268,1.486,35.767,68.909,-232.727
-0.748,0.280,1.442,31.860,87.585,-270.630
-0.771,-0.013,1.350,22.522,111.206,-319.092
-0.781,-0.309,1.278,2.930,137.329,-357.727
-0.728,-0.367,1.340,-22.583,158.752,-371.826
-0.729,-0.313,1.518,-37.476,176.514,-377.075
-0.816,-0.326,1.589,-39.917,196.899,-387.451
-0.885,-0.457,1.372,-46.021,221.252,-400.513
-0.842,-0.740,1.088,-64.941,231.934,-406.616
-0.824,-0.936,0.989,-128.357,219.055,-385.559
-0.739,-0.938,0.999,-149.719,194.397,-338.196
-0.702,-0.750,0.923,-121.643,176.147,-293.274
-0.628,-0.784,0.765,-100.342,163.757,-268.311
-0.544,-0.967,0.723,-62.744,144.958,-248.535
-0.423,-0.981,0.748,-35.095,125.916,-205.078
-0.294,-0.772,0.819,-3.479,109.619,-147.583
-0.230,-0.480,0.771,32.104,95.703,-102.051
-0.157,-0.281,0.747,25.146,88.928,-71.350
-0.126,-0.204,0.739,22.827,81.116,-55.420
-0.102,-0.328,0.714,28.748,71.472,-49.072
-0.077,-0.375,0.701,37.781,58.777,-37.964
-0.042,-0.297,0.717,37.231,44.556,-22.339
0.000,-0.251,0.761,33.875,30.762,-13.611
-0.016,-0.296,0.831,26.367,18.921,-11.658
-0.053,-0.354,0.858,22.522,10.742,-8.118
-0.082,-0.278,0.889,20.691,2.991,1.526
-0.098,-0.169,1.004,20.813,-5.615,9.277
-0.107,-0.082,1.071,19.531,-7.080,12.634
-0.103,-0.037,1.047,18.066,-2.869,13.489
-0.101,-0.042,0.994,20.447,0.732,12.878
-0.087,-0.056,0.958,23.865,0.977,12.085
-0.070,-0.028,0.944,23.804,0.000,11.963
-0.068,-0.049,0.959,19.348,-0.610,9.827
-0.077,-0.100,0.960,14.771,-1.831,6.165
-0.077,-0.088,0.953,12.512,-3.784,5.493
-0.087,-0.073,0.990,11.414,-6.348,5.371
-0.102,-0.099,1.000,9.827,-6.836,4.028
-0.120,-0.137,1.021,9.644,-7.263,4.028
-0.132,-0.195,1.054,10.376,-8.118,5.798
-0.126,-0.173,1.063,10.071,-7.263,10.193
-0.118,-0.113,1.072,9.827,-5.981,14.709
-0.125,-0.091,1.073,9.521,-4.456,15.625
-0.131,-0.088,1.045,10.376,-2.808,14.709
-0.132,-0.034,1.011,11.658,-1.648,14.648
-0.142,-0.010,0.994,11.475,-1.648,12.634
-0.147,-0.027,0.975,10.437,-2.686,8.667
-0.134,-0.038,0.988,9.399,-4.822,5.432
-0.126,-0.044,1.013,6.470,-7.019,2.869
-0.134,-0.108,1.027,1.831,-6.714,-0.183
-0.142,-0.166,1.048,0.793,-7.080,-0.916
-0.135,-0.147,1.072,0.122,-6.592,2.563
-0.134,-0.137,1.089,0.854,-5.066,5.371
-0.134,-0.133,1.067,3.601,-3.052,6.592
-0.129,-0.107,1.042,5.798,-0.977,7.812
-0.129,-0.101,1.006,7.324,-0.122,8.057
-0.125,-0.097,0.975,8.545,0.061,7.629
-0.123,-0.088,0.999,8.118,-1.770,7.019
-0.128,-0.093,0.980,4.822,-2.258,5.066
-0.131,-0.120,0.963,4.150,-3.296,3.174
-0.128,-0.142,0.991,5.920,-5.920,2.686
-0.118,-0.130,1.046,5.188,-7.019,3.784
-0.122,-0.130,1.041,3.540,-5.188,4.211
-0.115,-0.133,1.012,3.601,-2.441,4.822
-0.108,-0.140,0.996,3.601,-1.526,5.066
-0.111,-0.147,0.953,5.188,-1.526,5.310
-0.112,-0.131,0.947,7.385,-3.479,6.287
-0.120,-0.116,0.990,9.277,-6.653,6.348
-0.125,-0.115,1.021,8.484,-8.423,5.432
-0.121,-0.112,1.024,4.883,-6.958,4.761
-0.121,-0.120,1.032,3.357,-5.493,4.028
-0.130,-0.145,1.028,3.601,-4.761,3.235
-0.133,-0.157,1.016,5.432,-4.395,3.784
-0.124,-0.142,1.005,6.958,-4.456,5.310
-0.115,-0.125,1.001,5.310,-4.272,6.226
-0.121,-0.143,0.984,3.662,-4.089,5.249
-0.125,-0.158,0.980,4.578,-5.066,5.432
-0.122,-0.137,0.989,7.080,-7.202,6.836
-0.124,-0.100,1.041,7.080,-9.399,6.836
-0.136,-0.094,1.080,0.916,-7.996,4.395
-0.147,-0.111,1.062,-3.052,-4.700,1.770
-0.151,-0.142,1.056,-1.892,-3.967,0.183
-0.145,-0.148,1.055,1.709,-3.967,0.610
-0.136,-0.118,1.048,1.831,-2.747,2.014
-0.136,-0.136,1.015,-2.136,-0.671,1.160
-0.135,-0.153,1.001,-2.014,-1.221,0.488
-0.138,-0.143,1.024,1.648,-3.662,1.770
-0.145,-0.128,1.064,5.005,-5.554,2.319
-0.144,-0.123,1.063,6.226,-5.188,2.014
-0.141,-0.119,1.063,5.798,-4.272,1.831
-0.146,-0.138,1.051,5.554,-3.540,1.282
-0.148,-0.147,1.036,7.629,-3.174,1.282
-0.144,-0.151,1.034,10.681,-3.479,2.319
-0.131,-0.148,1.017,11.169,-3.662,2.625
-0.129,-0.146,1.021,7.996,-3.662,2.502
-0.128,-0.155,1.005,7.507,-3.418,2.136
-0.132,-0.151,1.007,8.545,-3.601,2.625
-0.126,-0.146,1.009,10.254,-4.089,3.235
-0.119,-0.136,1.001,9.583,-3.662,3.723
-0.124,-0.163,0.994,7.874,-3.357,2.747
-0.128,-0.176,0.984,8.728,-3.418,2.747
-0.130,-0.167,0.990,10.437,-4.395,4.028
-0.127,-0.157,0.979,11.353,-4.944,4.761
-0.128,-0.147,0.986,11.108,-5.676,4.761
-0.135,-0.151,1.002,11.230,-6.470,4.333
-0.136,-0.160,1.001,11.597,-6.409,3.723
-0.136,-0.169,1.003,11.230,-5.798,3.662
-0.136,-0.168,1.013,10.132,-5.737,3.906
-0.132,-0.167,1.008,8.972,-5.066,4.211
-0.130,-0.169,0.989,8.484,-4.395,4.333
-0.128,-0.159,0.976,8.179,-4.456,4.700
-0.132,-0.144,0.979,8.179,-5.493,4.761

-0.380,-0.690,1.977,71.838,145.325,-96.741
-0.311,-0.853,1.888,67.871,182.312,-77.576
-0.215,-0.883,1.624,67.627,215.149,-50.293
-0.126,-0.872,1.296,69.580,235.474,-21.301
-0.027,-0.873,0.958,71.594,241.699,3.662
0.083,-0.826,0.664,70.679,231.689,25.513
0.185,-0.762,0.484,75.012,207.214,44.434
0.261,-0.668,0.455,78.125,173.950,60.425
0.297,-0.718,0.481,68.176,142.883,65.125
0.304,-0.844,0.517,60.242,115.601,68.054
0.299,-0.906,0.538,62.988,92.590,79.956
0.291,-0.874,0.530,71.411,72.266,99.182
0.263,-0.837,0.445,84.167,54.626,119.263
0.204,-0.867,0.326,100.220,35.645,137.268
0.134,-0.983,0.232,105.835,16.174,156.311
0.061,-1.159,0.186,106.750,-5.737,181.885
-0.039,-1.283,0.265,101.257,-29.968,219.910
-0.154,-1.351,0.288,87.891,-51.147,269.104
-0.258,-1.191,0.350,82.153,-72.693,328.308
-0.258,-0.810,0.245,97.046,-101.135,387.207
-0.289,-0.279,0.166,108.215,-145.691,429.382
-0.186,0.080,0.239,91.736,-190.125,435.120
-0.123,0.334,0.412,87.891,-235.779,414.612
-0.111,0.504,0.533,100.464,-274.597,381.042
-0.135,0.606,0.624,109.741,-299.805,339.294
-0.176,0.481,0.768,115.723,-316.162,291.382
-0.258,0.304,0.767,106.567,-314.087,253.235
-0.384,0.177,0.511,85.327,-298.828,231.628
-0.386,0.021,0.370,60.669,-292.236,219.788
-0.368,0.210,0.595,55.847,-308.838,222.534
-0.373,0.265,0.996,65.186,-321.716,213.806
-0.382,0.100,1.143,67.505,-299.011,189.026
-0.360,-0.170,0.992,53.101,-251.038,164.246
-0.334,-0.318,0.854,38.208,-215.698,152.954
-0.255,-0.268,0.950,29.114,-201.843,150.940
-0.231,-0.205,1.132,36.377,-193.115,145.508
-0.327,-0.148,1.135,60.730,-174.988,129.211
-0.404,-0.057,1.046,85.571,-153.931,108.398
-0.442,0.014,0.931,100.586,-136.963,83.435
-0.536,0.078,0.836,104.431,-125.122,53.711
-0.625,0.108,0.827,105.713,-120.483,17.273
-0.681,0.110,0.857,109.009,-119.629,-22.522
-0.727,0.023,0.997,116.333,-119.141,-65.613
-0.742,-0.113,1.175,128.601,-114.990,-105.652
-0.775,-0.298,1.171,130.188,-95.520,-140.381
-0.802,-0.595,1.165,121.582,-72.510,-167.114
-0.774,-0.880,1.240,113.647,-57.312,-180.725
-0.765,-0.911,1.290,102.661,-41.504,-174.377
-0.715,-0.744,1.453,90.576,-29.480,-160.278
-0.695,-0.534,1.530,79.224,-11.169,-153.748
-0.718,-0.384,1.450,70.801,16.968,-162.659
-0.750,-0.283,1.332,66.223,43.945,-182.373
-0.818,-0.151,1.294,61.462,62.012,-204.346
-0.886,-0.075,1.293,54.626,77.332,-229.797
-0.910,-0.110,1.266,45.166,98.389,-259.216
-0.879,-0.189,1.193,39.551,122.375,-285.339
-0.850,-0.219,1.155,37.598,141.113,-306.213
-0.757,-0.212,1.165,36.804,152.649,-323.975
-0.691,-0.213,1.325,26.184,162.598,-343.933
-0.724,-0.172,1.521,8.484,181.885,-366.028
-0.827,-0.235,1.626,-9.583,215.576,-395.325
-0.909,-0.473,1.520,-10.986,248.779,-431.824
-1.023,-0.825,1.502,-36.377,274.902,-459.167
-1.155,-1.151,1.366,-74.646,302.856,-457.214
-1.110,-1.494,1.114,-98.938,324.280,-424.316
-0.995,-1.647,0.850,-110.229,328.918,-359.985
-0.855,-1.604,0.416,-88.562,310.486,-281.433
-0.633,-1.504,0.248,-27.039,257.446,-205.750
-0.493,-1.435,0.152,41.626,192.932,-134.216
-0.326,-1.056,0.203,65.002,141.357,-55.908
-0.151,-0.518,0.354,74.829,99.792,8.179
-0.044,-0.190,0.508,87.158,67.017,33.569
-0.011,-0.146,0.521,79.712,51.453,28.320
-0.016,-0.229,0.389,55.420,46.326,16.418
-0.032,-0.293,0.322,39.185,32.349,11.108
-0.037,-0.298,0.443,35.095,5.554,12.024
-0.055,-0.283,0.615,32.715,-17.639,13.367
-0.092,-0.313,0.719,25.574,-29.114,13.306
-0.127,-0.300,0.860,16.052,-35.950,14.343
-0.139,-0.262,1.053,6.531,-39.063,18.127
-0.144,-0.281,1.196,11.475,-33.569,22.156
-0.162,-0.280,1.195,26.733,-20.630,27.527
-0.152,-0.193,1.062,32.043,-5.981,34.424
-0.137,-0.126,0.982,29.846,1.404,36.133
-0.140,-0.123,1.002,26.489,1.587,31.677
-0.134,-0.102,0.990,22.339,2.686,26.428
-0.129,-0.061,0.948,16.907,5.249,20.447
-0.140,-0.051,0.928,8.911,5.981,11.902
-0.147,-0.089,0.884,0.793,5.859,2.686
-0.150,-0.153,0.867,-5.127,2.869,-4.211
-0.161,-0.233,0.923,-9.399,-2.563,-7.568
-0.167,-0.290,0.982,-9.949,-6.348,-8.423
-0.159,-0.308,1.030,-6.836,-7.385,-6.226
-0.153,-0.310,1.069,-2.625,-6.897,-3.235
-0.152,-0.323,1.057,-2.197,-3.357,-0.732
-0.169,-0.350,1.022,-2.625,-0.183,1.526
-0.182,-0.352,1.001,1.160,0.183,5.310
-0.176,-0.311,0.977,6.226,-1.953,9.766
-0.166,-0.236,0.967,8.606,-4.028,12.817
-0.167,-0.189,0.994,8.850,-5.554,12.512
-0.180,-0.179,1.010,8.972,-6.531,9.216
-0.186,-0.170,1.003,6.531,-5.127,5.859
-0.185,-0.177,0.994,3.052,-4.272,2.075
-0.192,-0.218,1.026,1.648,-4.700,-1.709
-0.191,-0.285,1.031,1.770,-4.333,-3.845
-0.180,-0.322,1.014,-0.793,-2.747,-2.686
-0.177,-0.342,1.013,-1.099,-1.709,0.427
-0.175,-0.318,1.015,1.465,-1.343,4.700
-0.168,-0.260,1.012,3.418,-1.221,8.606
-0.172,-0.229,1.001,0.732,-0.427,8.911
-0.170,-0.229,0.993,-2.808,0.610,6.714
-0.169,-0.232,0.999,-1.770,-0.061,5.432
-0.172,-0.240,0.993,1.526,-0.671,4.456
-0.167,-0.232,0.968,3.906,-0.244,3.906
-0.153,-0.221,0.950,3.967,-0.488,2.930
-0.152,-0.232,0.971,0.977,-1.221,1.160
-0.152,-0.255,0.959,0.427,-1.282,-0.427
-0.150,-0.260,0.953,2.014,-1.770,-0.305
-0.154,-0.252,0.966,3.418,-3.113,0.244

-0.325,-0.603,1.586,-2.502,149.841,-31.677
-0.271,-0.565,1.439,4.700,171.570,-16.418
-0.217,-0.436,1.270,24.109,184.814,2.747
-0.140,-0.314,1.117,40.833,191.711,18.433
-0.059,-0.302,0.967,43.640,192.993,20.142
0.007,-0.382,0.904,41.565,183.594,14.648
0.057,-0.509,0.931,43.152,166.809,11.475
0.116,-0.662,0.959,45.227,149.597,12.207
0.143,-0.841,1.008,44.678,135.010,18.738
0.173,-0.948,1.075,45.654,122.314,32.654
0.198,-0.935,1.038,53.589,115.234,53.955
0.217,-0.899,0.939,70.251,108.093,75.378
0.218,-0.888,0.892,83.313,96.802,92.712
0.203,-0.890,0.894,86.487,83.618,106.995
0.170,-0.922,0.806,89.905,73.120,122.314
0.144,-0.971,0.617,91.187,63.782,142.944
0.109,-1.036,0.313,89.111,48.767,167.664
0.035,-1.128,0.046,99.121,18.188,195.801
-0.096,-1.194,-0.005,101.257,-22.278,229.126
-0.245,-1.338,0.035,97.473,-62.378,266.602
-0.381,-1.166,0.253,117.004,-108.398,320.190
-0.375,-0.625,0.400,163.879,-155.701,382.690
-0.258,0.090,0.528,214.966,-207.886,422.729
-0.151,0.473,0.629,230.286,-246.643,409.668
-0.006,0.562,0.570,185.486,-254.333,359.619
-0.006,0.570,0.426,135.559,-255.920,306.458
0.041,0.405,0.437,97.229,-265.503,261.230
0.013,0.188,0.510,89.905,-284.363,227.600
-0.069,0.103,0.545,77.637,-290.161,207.092
-0.101,-0.079,0.328,80.811,-289.795,190.613
-0.167,-0.179,0.411,17.700,-297.974,189.941
-0.175,-0.134,0.620,-32.288,-307.190,204.895
-0.120,0.101,0.912,-44.006,-306.152,215.698
-0.078,0.291,1.078,-21.667,-291.565,212.280
-0.062,0.304,1.126,-14.954,-258.911,191.833
-0.057,0.222,1.073,-2.441,-223.816,166.382
-0.067,0.104,0.798,5.676,-188.354,143.860
-0.054,0.010,0.571,-0.610,-164.062,126.221
-0.121,-0.018,0.700,16.541,-169.800,112.732
-0.179,0.059,0.705,51.819,-173.157,99.243
-0.262,0.088,0.590,75.134,-166.077,76.843
-0.406,0.053,0.607,92.041,-168.152,46.936
-0.487,-0.043,0.661,108.093,-172.485,15.747
-0.549,-0.218,0.651,111.389,-168.945,-14.404
-0.602,-0.403,0.757,117.737,-169.250,-40.894
-0.632,-0.521,1.001,121.582,-172.302,-57.800
-0.664,-0.600,1.265,124.451,-168.335,-69.580
-0.744,-0.721,1.468,118.225,-150.696,-80.750
-0.815,-0.829,1.560,99.365,-118.835,-86.853
-0.821,-0.940,1.562,78.491,-81.238,-89.050
-0.843,-0.847,1.594,59.143,-45.654,-83.252
-0.857,-0.658,1.620,46.753,-13.611,-76.355
-0.850,-0.448,1.511,34.973,18.921,-78.796
-0.861,-0.300,1.437,22.034,44.678,-92.163
-0.882,-0.163,1.417,17.151,62.439,-114.380
-0.878,0.068,1.386,17.090,77.759,-139.343
-0.866,0.258,1.416,11.108,92.896,-168.396
-0.839,0.110,1.384,10.681,111.755,-213.745
-0.825,-0.077,1.231,10.864,136.841,-259.399
-0.767,-0.124,1.139,4.211,155.090,-289.490
-0.691,-0.106,1.216,0.610,159.363,-312.378
-0.643,-0.106,1.431,-6.653,164.429,-339.783
-0.681,-0.082,1.670,-23.193,184.509,-371.704
-0.811,-0.162,1.762,-44.983,219.727,-406.860
-0.900,-0.278,1.700,-75.684,254.150,-439.697
-0.982,-0.422,1.592,-109.924,281.799,-466.980
-1.118,-0.754,1.550,-149.109,301.270,-487.366
-1.183,-1.234,1.444,-222.839,311.035,-482.361
-1.215,-1.600,1.253,-305.420,308.594,-437.073
-0.981,-1.593,0.755,-250.183,301.086,-364.014
-0.710,-1.592,0.556,-127.625,259.583,-289.856
-0.456,-1.480,0.447,-1.465,203.247,-212.158
-0.257,-1.045,0.511,49.683,165.039,-124.451
-0.087,-0.523,0.518,63.477,145.691,-55.481
0.019,-0.191,0.526,68.481,130.066,-24.414
0.049,-0.135,0.509,67.932,113.831,-24.719
0.037,-0.256,0.493,61.523,96.924,-32.959
0.054,-0.393,0.471,64.880,77.454,-32.654
0.089,-0.470,0.516,72.144,55.054,-20.813
0.122,-0.492,0.589,76.660,34.546,-5.371
0.129,-0.437,0.658,71.777,20.630,9.705
0.100,-0.385,0.712,56.885,12.146,19.836
0.067,-0.333,0.776,46.631,3.113,25.635
0.035,-0.218,0.834,44.678,-5.798,32.288
0.017,-0.071,0.855,41.687,-10.193,37.415
0.002,0.049,0.887,33.813,-11.658,36.743
-0.010,0.108,0.946,24.902,-13.306,30.640
-0.006,0.090,0.997,17.090,-13.245,21.057
0.005,-0.001,1.046,10.315,-12.268,10.437
0.018,-0.089,1.054,6.897,-10.559,3.113
0.032,-0.160,0.997,3.418,-7.263,0.366
0.043,-0.205,0.937,2.197,-5.798,0.122
0.062,-0.179,1.005,2.441,-9.094,1.343
0.046,-0.154,1.107,0.671,-10.864,2.441
0.023,-0.203,1.035,0.610,-4.517,1.160
0.013,-0.236,0.966,1.282,-0.732,2.502
0.012,-0.222,1.008,4.150,-4.578,6.042
0.012,-0.174,1.029,5.371,-6.775,9.583
0.003,-0.127,1.044,2.747,-6.470,9.766
-0.001,-0.101,1.062,-1.404,-6.653,6.592
-0.005,-0.102,1.046,-3.418,-5.798,2.075
-0.005,-0.135,1.029,-1.587,-5.127,-1.831
-0.003,-0.158,1.041,1.831,-5.981,-3.113
0.005,-0.159,1.064,3.052,-5.554,-2.258
0.009,-0.193,1.074,2.258,-4.089,-2.380
0.008,-0.237,1.057,0.977,-1.526,-1.404
0.010,-0.251,1.018,0.305,0.671,2.014
0.004,-0.238,1.010,2.075,-0.610,6.165
-0.001,-0.188,1.032,3.784,-3.113,9.827
-0.011,-0.139,1.066,4.700,-4.517,11.230
-0.017,-0.108,1.064,3.723,-4.822,9.460
-0.018,-0.089,1.053,0.916,-4.395,6.653
-0.020,-0.091,1.073,0.977,-4.333,3.540
-0.014,-0.103,1.064,4.028,-3.601,0.977
-0.006,-0.127,1.024,6.348,-1.709,-1.099
0.003,-0.145,1.001,7.568,-0.305,-1.953
0.020,-0.165,0.974,7.629,-0.488,-2.747
0.034,-0.184,0.971,5.554,-1.709,-3.296
0.036,-0.216,0.970,1.465,-1.892,-3.296

-0.847,-1.461,1.007,-58.350,-130.432,261.963
-0.760,-0.979,0.951,15.564,-151.306,335.144
-0.651,-0.489,0.884,102.661,-180.664,376.404
-0.596,-0.336,1.150,172.852,-225.586,375.610
-0.596,-0.444,1.469,212.463,-257.629,354.187
-0.416,-0.420,2.106,214.233,-258.240,340.576
-0.386,-0.401,2.599,176.453,-217.163,354.675
-0.406,-0.176,2.054,97.107,-103.333,374.634
-0.351,0.055,1.548,22.400,-20.935,374.390
-0.400,-0.019,1.705,-16.113,-7.446,354.126
-0.425,-0.128,1.796,-37.842,9.644,331.787
-0.388,-0.150,1.688,-47.180,42.542,316.833
-0.420,-0.185,1.647,-46.143,63.782,300.598
-0.412,-0.062,1.586,-44.495,81.848,282.959
-0.400,0.069,1.433,-45.471,98.206,262.146
-0.385,0.096,1.195,-46.143,109.192,232.117
-0.343,0.128,0.948,-45.959,110.535,198.547
-0.301,0.165,0.866,-40.466,96.680,165.649
-0.265,0.185,0.934,-36.804,77.271,132.141
-0.208,0.237,1.098,-34.424,62.134,102.112
-0.139,0.352,1.346,-32.959,55.420,73.975
-0.103,0.388,1.501,-27.893,63.171,40.100
-0.067,0.349,1.504,-14.954,79.224,4.822
-0.080,0.240,1.519,-3.845,94.910,-28.015
-0.078,0.223,1.533,11.169,114.990,-58.167
-0.038,0.307,1.541,25.940,139.771,-82.214
-0.077,0.313,1.441,44.617,167.480,-111.145
-0.143,0.199,1.170,52.612,201.233,-144.104
-0.184,0.028,0.904,31.677,228.394,-171.692
-0.251,-0.139,0.697,10.071,239.624,-189.026
-0.299,-0.250,0.490,9.705,237.854,-197.815
-0.297,-0.406,0.331,21.240,223.938,-198.547
-0.132,-0.419,0.239,48.462,199.097,-184.448
0.052,-0.090,0.308,71.838,169.861,-158.447
0.163,0.161,0.339,65.186,150.330,-151.184
0.174,0.239,0.367,30.640,142.090,-168.945
0.170,0.080,0.276,-1.953,139.099,-199.768
0.194,-0.069,0.173,-13.855,130.066,-219.788
0.213,-0.176,0.146,-12.756,109.924,-224.060
0.243,-0.261,0.167,-14.343,88.745,-220.398
0.250,-0.340,0.120,-17.151,72.998,-215.027
0.269,-0.386,0.024,-13.733,55.603,-207.886
0.301,-0.398,-0.050,-9.583,31.616,-199.646
0.278,-0.383,-0.046,-18.555,2.075,-195.312
0.212,-0.464,0.010,-40.405,-26.428,-198.853
0.128,-0.642,0.103,-61.035,-51.147,-202.698
0.069,-0.769,0.234,-71.106,-74.951,-195.007
0.038,-0.789,0.439,-73.975,-96.802,-175.293
0.008,-0.801,0.575,-74.524,-107.788,-153.564
-0.000,-0.887,0.621,-85.083,-105.164,-133.911
-0.018,-0.994,0.631,-105.652,-98.938,-115.723
-0.050,-1.095,0.629,-112.000,-101.624,-96.313
-0.110,-1.205,0.648,-119.934,-109.253,-68.726
-0.180,-1.255,0.673,-153.198,-112.244,-30.945
-0.264,-1.290,0.814,-152.649,-127.197,7.446
-0.359,-1.280,1.099,-109.436,-151.611,48.523
-0.456,-1.216,1.410,-56.946,-167.908,93.506
-0.488,-1.067,1.589,-23.071,-163.086,137.329
-0.444,-0.812,1.622,5.676,-148.926,172.607
-0.368,-0.543,1.600,35.461,-136.353,194.214
-0.286,-0.356,1.568,55.603,-123.596,197.449
-0.227,-0.307,1.487,63.232,-110.413,185.181
-0.181,-0.340,1.432,52.917,-97.412,166.870
-0.167,-0.314,1.399,41.626,-88.013,153.687
-0.188,-0.264,1.332,39.368,-80.078,142.883
-0.183,-0.209,1.281,34.790,-71.167,131.104
-0.187,-0.150,1.236,26.855,-64.270,119.568
-0.194,-0.187,1.187,13.000,-55.969,104.553
-0.188,-0.351,1.180,-8.057,-45.532,88.318
-0.166,-0.452,1.214,-32.349,-35.339,81.177
-0.103,-0.322,1.215,-49.255,-24.048,84.045
-0.065,-0.197,1.246,-45.349,-17.639,82.764
-0.060,-0.195,1.197,-38.696,-9.644,70.313
-0.066,-0.244,1.119,-35.767,-0.671,55.969
-0.067,-0.274,1.062,-30.701,4.578,46.875
-0.068,-0.262,0.995,-25.452,8.301,40.894
-0.058,-0.251,0.921,-21.179,10.071,35.339
-0.039,-0.255,0.865,-18.677,8.484,29.358
-0.032,-0.281,0.883,-17.761,2.991,22.888
-0.010,-0.275,0.942,-15.015,-3.418,17.456
0.027,-0.257,0.978,-7.935,-7.446,13.184
0.029,-0.292,0.985,-1.099,-9.399,7.263
-0.001,-0.349,0.954,2.747,-8.911,2.319
-0.005,-0.371,0.932,3.540,-7.751,2.197
0.003,-0.369,0.925,3.357,-7.141,3.479
-0.002,-0.319,0.944,2.686,-6.714,4.761
-0.023,-0.311,0.960,2.747,-6.897,3.662
-0.037,-0.375,0.963,-0.671,-5.920,-0.061
-0.043,-0.421,0.944,-3.601,-4.517,-1.404
-0.040,-0.409,0.933,-3.174,-4.150,0.427
-0.028,-0.375,0.950,-0.183,-4.944,2.686
-0.026,-0.366,0.934,2.136,-5.005,3.235
-0.025,-0.379,0.919,1.465,-4.211,2.930
-0.020,-0.359,0.940,0.732,-5.127,2.991
-0.011,-0.360,0.934,0.366,-5.737,2.319
-0.021,-0.378,0.932,1.038,-5.981,1.099
-0.036,-0.391,0.945,2.441,-7.324,0.732
-0.046,-0.393,0.964,2.258,-7.874,1.038
-0.055,-0.390,0.976,2.869,-7.568,1.648
-0.060,-0.403,0.957,3.174,-6.348,1.709
-0.078,-0.385,0.964,2.502,-5.981,2.441
-0.077,-0.379,0.957,3.235,-5.676,2.808
-0.063,-0.379,0.932,1.892,-4.944,2.197
-0.052,-0.386,0.933,0.305,-6.165,1.709
-0.052,-0.395,0.943,-0.061,-7.874,1.282
-0.058,-0.388,0.950,1.526,-9.399,1.770
-0.068,-0.371,0.989,3.845,-10.986,2.136
-0.085,-0.371,1.016,6.592,-11.292,1.587
-0.090,-0.383,0.993,7.385,-9.033,0.305
-0.091,-0.394,0.974,6.775,-7.690,-0.549
-0.086,-0.406,0.966,5.005,-7.568,-0.854
-0.078,-0.397,0.959,4.028,-7.629,-0.122
-0.082,-0.403,0.948,3.967,-8.057,-0.366
-0.087,-0.406,0.970,2.991,-8.911,-0.366
-0.092,-0.404,1.001,1.526,-9.460,0.000
-0.104,-0.429,1.015,0.793,-7.629,0.061
-0.107,-0.429,1.015,1.526,-5.249,1.343
-0.101,-0.418,1.007,1.343,-3.235,3.357
-0.090,-0.409,0.985,0.366,-1.160,4.150

-0.299,-1.247,1.171,-73.608,-155.640,-87.524
-0.385,-1.347,1.177,-111.023,-124.390,-57.800
-0.477,-1.527,1.166,-140.015,-97.412,-26.917
-0.518,-1.629,1.151,-128.845,-89.966,16.235
-0.547,-1.535,1.151,-87.524,-101.624,77.942
-0.585,-1.326,1.153,-43.884,-118.591,144.287
-0.605,-1.074,1.108,-11.292,-129.028,198.059
-0.599,-0.836,1.008,15.503,-138.184,231.201
-0.488,-0.536,1.008,38.452,-153.564,245.178
-0.349,-0.197,1.140,60.486,-177.368,242.615
-0.295,0.036,1.266,78.918,-198.120,218.323
-0.327,-0.022,1.380,81.604,-205.994,174.866
-0.342,-0.165,1.579,57.800,-200.317,136.841
-0.335,-0.348,1.764,25.940,-179.687,118.164
-0.324,-0.436,1.786,-5.005,-140.076,111.938
-0.296,-0.472,1.737,-36.194,-94.849,111.206
-0.277,-0.435,1.607,-51.514,-54.199,109.192
-0.231,-0.365,1.441,-45.227,-25.940,104.553
-0.168,-0.332,1.275,-36.438,-9.521,95.825
-0.111,-0.249,1.201,-33.813,-1.953,84.717
-0.059,-0.171,1.215,-20.935,-1.587,72.937
-0.027,-0.198,1.120,-7.935,2.991,56.946
-0.014,-0.237,0.955,-4.761,11.841,41.626
-0.004,-0.225,0.887,-8.240,12.390,30.273
-0.009,-0.213,0.889,-12.817,7.080,20.447
-0.021,-0.278,0.869,-16.968,2.686,8.484
-0.028,-0.359,0.872,-17.822,-1.587,-1.099
-0.036,-0.419,0.915,-16.663,-5.188,-5.493
-0.047,-0.461,0.961,-15.869,-6.470,-6.226
-0.060,-0.483,0.982,-14.832,-4.944,-5.554
-0.064,-0.502,0.964,-13.245,-1.099,-3.479
-0.053,-0.495,0.922,-12.512,3.357,0.305
-0.028,-0.429,0.904,-11.047,5.005,4.578
-0.017,-0.360,0.897,-7.874,4.517,6.592
-0.010,-0.317,0.873,-4.639,4.211,5.432
-0.015,-0.300,0.860,-0.916,3.174,2.075
-0.029,-0.331,0.860,2.258,1.526,-2.930
-0.036,-0.361,0.851,4.578,-0.366,-6.592
-0.053,-0.399,0.866,6.897,-3.174,-8.545
-0.071,-0.461,0.879,8.972,-4.944,-9.460
-0.073,-0.499,0.904,8.240,-5.798,-7.996
-0.071,-0.469,0.937,5.676,-5.798,-4.395
-0.079,-0.457,0.952,3.784,-5.310,-2.380
-0.085,-0.454,0.932,2.380,-3.967,-1.709
-0.080,-0.471,0.921,0.610,-3.479,-1.343
-0.071,-0.446,0.921,-0.732,-3.662,-0.183
-0.068,-0.408,0.934,-0.427,-4.211,0.366
-0.074,-0.416,0.921,1.099,-4.578,-1.038
-0.077,-0.440,0.902,3.296,-4.639,-2.625
-0.080,-0.445,0.913,5.676,-5.859,-2.502
-0.075,-0.438,0.940,6.836,-7.202,-2.136
-0.074,-0.431,0.951,7.324,-7.080,-2.197
-0.088,-0.434,0.961,7.751,-6.287,-3.174
-0.102,-0.451,0.952,7.385,-5.005,-3.967
-0.106,-0.469,0.928,5.310,-3.540,-3.845
-0.102,-0.463,0.932,3.113,-3.052,-2.991
-0.097,-0.453,0.927,1.953,-2.991,-1.770
-0.097,-0.469,0.916,0.183,-3.052,-1.831
-0.105,-0.458,0.926,-0.977,-4.333,-1.709
-0.118,-0.468,0.936,-0.977,-5.737,-1.526
-0.116,-0.471,0.921,-0.671,-6.287,-1.404
-0.116,-0.455,0.930,-0.183,-7.812,-0.610
-0.118,-0.451,0.945,0.000,-8.972,-0.305
-0.123,-0.431,0.947,0.366,-8.484,-0.122
-0.123,-0.415,0.955,1.221,-7.507,-0.305
-0.132,-0.418,0.958,2.686,-6.104,-0.977
-0.143,-0.435,0.956,3.601,-4.517,-1.587
-0.137,-0.452,0.955,3.906,-3.662,-1.587
-0.120,-0.468,0.946,2.991,-2.502,-1.587
-0.115,-0.470,0.943,2.808,-1.648,-1.099
-0.118,-0.467,0.926,3.540,-1.953,-0.488
-0.118,-0.460,0.906,3.235,-2.258,0.000
-0.119,-0.448,0.916,2.930,-3.418,0.671
-0.125,-0.427,0.927,3.479,-4.272,0.610
-0.133,-0.399,0.937,3.357,-4.517,-0.244
-0.142,-0.401,0.950,3.052,-4.456,-2.319
-0.140,-0.427,0.955,3.479,-3.845,-4.822
-0.135,-0.463,0.953,3.357,-2.502,-5.981
-0.132,-0.510,0.953,1.770,-0.793,-6.104
-0.115,-0.503,0.965,1.099,0.000,-4.517
-0.109,-0.473,0.957,1.892,0.977,-1.831
-0.111,-0.467,0.929,2.319,1.831,-1.160
-0.103,-0.455,0.900,2.014,2.014,-0.732
-0.097,-0.448,0.888,1.038,1.404,-0.427
-0.098,-0.449,0.886,0.916,-0.366,-0.183
-0.098,-0.434,0.900,1.343,-2.686,0.244
-0.100,-0.419,0.915,1.892,-4.089,0.244
-0.105,-0.444,0.916,1.953,-4.395,-1.160
-0.109,-0.440,0.928,1.831,-4.333,-1.831
-0.117,-0.426,0.940,3.052,-4.517,-2.014
-0.129,-0.427,0.947,3.601,-4.211,-2.930
-0.129,-0.463,0.950,2.808,-3.418,-4.089
-0.113,-0.482,0.924,1.709,-0.671,-3.235
-0.103,-0.469,0.913,0.854,0.488,-1.648
-0.094,-0.459,0.900,1.282,-0.244,-0.366
-0.098,-0.457,0.900,1.038,-1.709,0.061
-0.110,-0.464,0.904,1.282,-3.479,0.183
-0.130,-0.452,0.915,2.380,-4.395,0.549
-0.136,-0.422,0.934,2.808,-5.188,1.038
-0.139,-0.413,0.943,2.686,-5.005,0.183
-0.131,-0.415,0.935,2.869,-4.028,-1.221
-0.116,-0.426,0.902,3.479,-2.563,-2.136
-0.099,-0.441,0.889,3.845,-2.258,-2.930
-0.084,-0.445,0.896,4.639,-3.662,-2.808
-0.092,-0.449,0.913,6.104,-4.822,-2.747
-0.103,-0.449,0.931,7.141,-5.798,-2.808
-0.116,-0.453,0.945,6.409,-5.798,-2.869
-0.118,-0.470,0.931,5.554,-4.822,-3.357
-0.119,-0.473,0.910,5.371,-4.517,-2.808
-0.126,-0.473,0.909,5.127,-5.005,-1.953
-0.120,-0.462,0.906,5.249,-5.920,-1.099
-0.120,-0.430,0.921,5.432,-7.080,-0.305
-0.122,-0.407,0.939,5.859,-7.874,-0.916
-0.123,-0.409,0.945,6.470,-7.690,-2.930
-0.137,-0.422,0.948,6.470,-7.080,-5.066
-0.146,-0.437,0.957,6.836,-6.226,-6.165
-0.154,-0.436,0.972,7.996,-5.432,-6.592
-0.157,-0.430,0.985,8.972,-4.211,-7.019
-0.153,-0.419,0.980,10.132,-1.831,-7.751

-0.490,-1.118,1.019,-41.382,193.481,-232.544
-0.441,-1.145,1.034,-45.776,185.425,-210.571
-0.415,-1.119,1.023,-43.518,178.345,-180.664
-0.375,-1.100,1.008,-47.668,174.133,-149.414
-0.323,-1.171,1.052,-53.772,170.532,-124.817
-0.261,-1.303,1.118,-58.716,166.748,-100.525
-0.177,-1.306,1.116,-46.631,166.382,-61.584
-0.113,-1.250,1.058,-24.292,164.856,-15.503
-0.084,-1.204,0.899,2.808,158.875,26.245
-0.038,-1.021,0.821,14.709,146.729,66.711
0.008,-0.817,0.760,27.771,129.333,100.525
0.045,-0.759,0.726,42.236,111.267,114.868
0.049,-0.914,0.676,41.931,95.154,114.685
0.036,-1.015,0.563,42.480,80.933,124.207
0.057,-0.965,0.383,52.429,62.317,150.024
0.043,-0.900,0.234,51.575,38.574,175.720
-0.009,-0.972,0.114,50.781,10.498,190.674
-0.128,-1.094,0.021,55.176,-18.188,211.182
-0.220,-1.078,-0.070,62.134,-46.936,249.939
-0.298,-0.849,-0.110,90.881,-91.064,300.476
-0.339,-0.484,-0.019,122.131,-147.583,346.802
-0.287,-0.079,0.142,129.700,-197.693,369.324
-0.249,0.234,0.250,111.633,-236.694,359.497
-0.185,0.340,0.313,92.041,-264.282,326.721
-0.180,0.412,0.428,85.022,-292.847,290.039
-0.207,0.344,0.569,75.012,-314.270,252.319
-0.267,0.331,0.682,69.458,-324.158,219.666
-0.291,0.383,0.901,53.101,-327.087,198.120
-0.229,0.441,0.980,26.062,-312.683,179.565
-0.098,0.379,0.949,26.184,-285.767,149.048
-0.031,0.283,1.005,36.316,-269.836,117.065
-0.054,0.125,0.998,61.951,-253.906,87.708
-0.056,-0.005,0.866,79.712,-231.079,64.209
-0.113,-0.040,0.883,91.553,-216.980,48.767
-0.238,0.042,0.964,104.675,-210.327,35.156
-0.414,0.058,0.962,120.178,-196.655,9.888
-0.597,-0.003,1.023,127.625,-180.969,-23.193
-0.698,-0.065,1.232,126.038,-164.734,-56.824
-0.788,-0.156,1.455,120.483,-139.648,-88.928
-0.837,-0.236,1.571,112.549,-98.999,-119.568
-0.829,-0.402,1.649,99.365,-49.072,-146.851
-0.750,-0.532,1.623,79.895,1.404,-163.757
-0.672,-0.693,1.646,56.458,42.419,-171.875
-0.651,-0.802,1.628,36.316,74.524,-171.631
-0.617,-0.767,1.537,10.620,106.934,-162.292
-0.529,-0.605,1.428,-29.541,137.329,-152.100
-0.418,-0.383,1.393,-70.801,157.349,-151.184
-0.370,-0.245,1.475,-103.333,172.852,-167.480
-0.471,-0.310,1.321,-122.437,199.890,-201.660
-0.539,-0.817,1.138,-175.598,247.131,-246.887
-0.560,-1.319,0.714,-220.703,283.325,-262.817
-0.467,-1.545,0.381,-224.670,271.729,-235.291
-0.328,-1.278,0.297,-192.322,216.125,-174.866
-0.196,-0.823,0.540,-127.136,139.648,-118.347
-0.091,-0.416,0.830,-73.242,84.167,-86.975
-0.037,-0.219,0.993,-50.415,59.387,-81.421
-0.054,-0.227,1.060,-52.124,53.650,-92.285
-0.085,-0.319,1.047,-56.152,52.795,-106.689
-0.095,-0.405,1.018,-46.875,49.622,-114.197
-0.127,-0.501,1.044,-29.907,41.077,-114.197
-0.176,-0.667,1.045,-16.479,35.339,-106.873
-0.175,-0.843,0.952,-17.883,39.490,-88.013
-0.136,-0.832,0.844,-26.062,43.152,-53.772
-0.088,-0.620,0.857,-22.827,34.607,-16.052
-0.052,-0.420,0.952,-13.977,21.606,7.385
-0.046,-0.265,0.997,-7.629,16.052,16.907
-0.047,-0.120,0.998,-1.831,15.015,20.447
-0.078,-0.078,1.001,5.676,15.198,17.090
-0.103,-0.115,0.950,10.986,16.235,10.437
-0.109,-0.142,0.883,14.465,14.832,5.554
-0.102,-0.105,0.905,15.442,8.606,4.211
-0.102,-0.097,0.956,13.245,1.953,0.977
-0.108,-0.183,0.970,7.446,-0.183,-4.822
-0.109,-0.271,1.021,0.244,-1.587,-8.118
-0.111,-0.321,1.073,-1.404,-1.526,-7.019
-0.099,-0.356,1.064,-1.953,2.258,-3.723
-0.071,-0.339,1.039,-4.883,7.690,2.136
-0.059,-0.297,1.021,-4.395,9.338,7.141
-0.052,-0.255,0.980,0.610,8.728,10.010
-0.052,-0.260,0.947,4.028,7.446,10.864
-0.059,-0.242,0.929,4.456,4.150,11.536
-0.061,-0.211,0.933,5.920,-0.061,11.414
-0.067,-0.169,0.967,7.446,-3.418,10.681
-0.076,-0.145,0.989,8.545,-4.822,8.301
-0.083,-0.153,0.984,7.446,-4.822,4.089
-0.092,-0.198,0.996,4.639,-5.310,-0.183
-0.098,-0.244,1.007,4.395,-6.104,-2.319
-0.101,-0.290,1.010,5.432,-6.042,-2.380
-0.102,-0.306,1.039,6.409,-6.409,-0.366
-0.116,-0.320,1.092,5.859,-6.653,1.526
-0.127,-0.306,1.100,4.822,-4.700,4.028
-0.134,-0.295,1.074,3.784,-0.977,7.141
-0.130,-0.279,1.052,4.272,2.319,9.583
-0.120,-0.238,1.018,6.775,4.272,12.268
-0.111,-0.207,0.975,9.460,4.639,13.123
-0.094,-0.157,0.966,11.780,2.380,12.390
-0.090,-0.147,0.962,10.620,0.488,9.583
-0.082,-0.167,0.953,5.737,-0.183,5.676
-0.077,-0.197,0.967,3.845,-2.747,2.197
-0.076,-0.212,0.980,4.822,-4.456,0.244
-0.076,-0.237,1.003,5.737,-5.249,-0.916
-0.091,-0.295,1.040,4.211,-4.944,-2.197
-0.101,-0.328,1.049,3.479,-3.235,-1.160
-0.090,-0.319,1.013,4.517,-0.427,2.502
-0.076,-0.313,0.991,4.944,1.038,5.493
-0.069,-0.296,0.987,5.005,0.488,7.935
-0.066,-0.273,0.985,5.310,-0.122,9.277
-0.064,-0.232,0.971,5.798,-0.793,9.583
-0.071,-0.199,0.973,6.348,-1.892,8.545
-0.086,-0.204,0.958,7.324,-2.380,5.920
-0.091,-0.209,0.941,8.606,-3.296,4.028
-0.096,-0.224,0.958,9.888,-4.456,2.808
-0.091,-0.255,0.974,11.292,-5.493,2.319
-0.089,-0.280,0.982,9.949,-5.371,2.686
-0.097,-0.306,1.002,8.911,-5.005,3.357
-0.099,-0.307,1.001,7.507,-4.456,5.066
-0.099,-0.301,0.986,6.531,-3.906,7.263
-0.103,-0.294,0.997,7.202,-4.395,8.423
-0.106,-0.271,1.002,8.179,-5.310,9.399

-0.762,-0.783,1.132,28.687,-206.360,220.703
-0.791,-0.825,1.138,49.011,-199.402,248.535
-0.694,-0.613,1.004,57.617,-188.538,271.790
-0.622,-0.345,1.074,94.238,-204.163,287.048
-0.659,-0.297,1.285,116.394,-219.482,280.396
-0.685,-0.409,1.373,110.596,-215.210,264.832
-0.704,-0.530,1.548,98.877,-202.209,257.385
-0.777,-0.498,1.620,83.679,-178.772,259.644
-0.858,-0.430,1.643,78.247,-151.245,254.333
-0.950,-0.611,1.531,60.791,-124.023,238.403
-0.983,-0.666,1.379,38.330,-100.830,227.905
-0.968,-0.609,1.311,34.363,-91.797,226.013
-0.940,-0.584,1.271,21.545,-81.543,220.093
-0.852,-0.533,1.265,12.573,-71.533,211.914
-0.707,-0.388,1.300,12.451,-64.575,205.383
-0.626,-0.237,1.335,10.620,-52.734,191.833
-0.572,-0.115,1.338,2.136,-32.593,171.997
-0.540,-0.232,1.202,-9.521,-7.690,145.630
-0.533,-0.431,1.027,-28.320,16.968,120.300
-0.482,-0.445,0.939,-45.227,33.875,109.436
-0.406,-0.351,0.873,-56.091,43.945,103.271
-0.357,-0.272,0.870,-60.791,47.485,93.018
-0.319,-0.266,0.929,-63.904,49.438,78.491
-0.297,-0.299,0.981,-70.068,55.725,65.063
-0.279,-0.291,1.005,-75.745,66.528,52.979
-0.264,-0.208,1.000,-75.562,77.209,44.006
-0.247,-0.123,0.952,-72.632,86.304,31.982
-0.236,-0.109,0.997,-69.397,92.163,15.015
-0.242,-0.098,1.063,-65.369,98.389,-2.502
-0.222,-0.136,1.101,-62.073,109.009,-18.616
-0.200,-0.150,1.119,-58.960,122.559,-34.851
-0.206,-0.187,1.050,-54.871,137.085,-50.110
-0.167,-0.205,0.969,-53.528,148.743,-63.049
-0.097,-0.204,0.826,-43.030,152.527,-72.388
-0.067,-0.467,0.683,-25.818,148.376,-83.557
-0.064,-0.674,0.379,-47.913,150.146,-86.914
-0.027,-0.757,0.145,-59.692,139.282,-77.393
0.023,-0.590,0.165,-42.969,103.455,-56.702
0.093,-0.307,0.367,-16.235,61.218,-38.574
0.118,-0.148,0.571,0.244,32.166,-34.302
0.098,-0.172,0.699,9.644,16.541,-42.236
0.056,-0.304,0.757,18.250,10.498,-52.246
0.025,-0.442,0.789,20.874,8.423,-56.946
0.016,-0.497,0.819,16.052,9.460,-54.016
0.016,-0.460,0.849,12.634,10.315,-47.424
-0.003,-0.460,0.950,14.221,7.935,-44.861
-0.003,-0.462,1.073,16.907,6.470,-45.532
-0.013,-0.473,1.176,14.160,10.925,-46.997
-0.035,-0.510,1.172,10.498,23.499,-49.622
-0.020,-0.481,1.121,11.292,36.987,-49.988
-0.037,-0.405,1.153,10.925,44.922,-50.110
0.025,-0.248,1.182,16.785,51.880,-51.453
0.023,-0.176,1.188,20.630,61.340,-58.105
0.006,-0.204,1.028,8.911,82.947,-73.853
-0.042,-0.277,0.831,-10.254,103.394,-86.243
-0.092,-0.380,0.665,-26.917,107.666,-94.299
-0.107,-0.609,0.547,-43.518,98.328,-101.318
-0.089,-0.785,0.515,-53.284,79.224,-100.281
-0.068,-0.809,0.705,-46.265,46.814,-84.839
-0.039,-0.758,0.974,-30.212,19.165,-65.857
-0.021,-0.697,1.108,-22.705,12.573,-49.866
-0.012,-0.604,1.073,-23.621,20.813,-36.926
0.003,-0.486,0.997,-25.635,29.114,-26.733
-0.003,-0.405,0.969,-26.672,30.151,-23.071
0.005,-0.379,0.907,-25.635,28.870,-25.024
0.005,-0.345,0.893,-28.320,26.245,-28.015
-0.004,-0.342,0.900,-31.067,21.973,-30.884
-0.003,-0.397,0.905,-35.156,19.348,-34.058
0.005,-0.450,0.903,-37.415,18.372,-34.485
0.027,-0.446,0.919,-32.959,16.113,-29.907
0.059,-0.449,0.918,-27.527,14.282,-24.353
0.082,-0.447,0.893,-22.217,13.794,-20.630
0.089,-0.423,0.866,-14.465,11.108,-16.907
0.076,-0.399,0.882,-10.376,7.080,-14.587
0.054,-0.372,0.911,-8.545,3.540,-13.245
0.040,-0.360,0.943,-6.104,0.916,-13.000
0.024,-0.355,0.993,-2.380,-1.038,-12.878
0.009,-0.404,1.014,-0.244,-0.671,-13.977
0.003,-0.450,1.019,1.526,0.732,-14.038
0.012,-0.429,1.009,3.052,2.319,-10.498
0.023,-0.384,0.995,5.432,3.296,-6.897
0.025,-0.377,0.978,5.981,4.272,-6.165
0.039,-0.411,0.940,1.465,6.042,-5.859
0.053,-0.411,0.899,-2.625,6.409,-3.723
0.060,-0.402,0.911,0.671,2.380,-1.465
0.069,-0.379,0.939,4.150,-2.258,-0.427
0.067,-0.352,0.967,4.272,-4.028,-0.183
0.053,-0.366,0.969,4.089,-4.211,-0.854
0.044,-0.402,0.967,4.089,-3.967,-1.221
0.046,-0.417,0.960,4.211,-4.089,-0.183
0.057,-0.388,0.950,4.150,-4.456,1.892
0.054,-0.374,0.963,3.418,-5.249,2.380
0.033,-0.375,0.982,1.831,-5.554,1.831
0.017,-0.388,1.015,1.953,-5.859,1.648
0.022,-0.389,1.020,2.747,-4.883,1.709
0.020,-0.394,1.011,3.174,-3.357,2.563
0.022,-0.405,0.992,5.249,-2.441,2.441
0.026,-0.380,0.978,8.728,-2.930,3.601
0.035,-0.353,0.969,10.498,-3.784,4.272
0.038,-0.351,0.963,8.545,-3.845,3.540
0.032,-0.371,0.956,6.836,-3.723,2.563
0.026,-0.390,0.963,5.493,-3.784,2.441
0.028,-0.384,0.972,4.822,-3.967,3.296
0.027,-0.375,0.979,3.235,-3.784,3.845
0.018,-0.381,0.986,2.380,-3.784,3.296
0.023,-0.378,0.972,3.906,-3.662,3.235
0.028,-0.363,0.965,4.150,-3.723,3.906
0.023,-0.379,0.969,2.991,-3.723,3.052
0.021,-0.393,0.962,1.221,-2.563,3.113
0.029,-0.381,0.961,0.916,-2.136,4.333
0.028,-0.370,0.964,1.343,-1.892,5.005
0.027,-0.365,0.948,2.563,-1.526,4.822
0.027,-0.351,0.938,3.052,-1.465,4.944
0.026,-0.345,0.939,2.625,-2.258,4.333
0.016,-0.352,0.949,3.052,-3.113,3.235
0.011,-0.358,0.963,3.479,-3.784,2.136
0.012,-0.371,0.975,2.136,-3.601,1.404
0.010,-0.403,0.991,0.061,-3.174,0.549
0.014,-0.423,1.009,-1.831,-1.892,1.465

-0.480,-1.585,0.889,-128.601,-197.327,-19.165
-0.615,-1.879,0.934,-98.572,-197.998,37.170
-0.768,-1.939,1.074,-31.616,-211.914,112.427
-0.909,-1.748,1.243,63.049,-233.765,201.294
-0.998,-1.356,1.372,148.376,-248.779,285.400
-0.945,-0.807,1.600,202.209,-256.470,349.243
-0.865,-0.444,1.938,225.830,-250.000,376.221
-0.847,-0.177,1.649,211.548,-207.886,374.634
-0.924,-0.317,1.430,196.716,-181.885,348.877
-0.922,-0.359,1.547,176.392,-181.519,321.960
-0.979,-0.501,1.409,156.128,-178.589,304.199
-0.952,-0.607,1.365,131.775,-174.988,287.354
-0.971,-0.569,1.426,115.845,-180.359,279.480
-0.939,-0.451,1.466,106.689,-176.514,268.127
-0.947,-0.286,1.604,95.276,-163.574,252.136
-0.974,-0.283,1.673,72.937,-137.207,226.196
-0.916,-0.335,1.658,39.307,-94.055,198.303
-0.869,-0.652,1.557,-4.944,-47.363,173.523
-0.709,-0.791,1.250,-58.411,3.479,154.785
-0.567,-0.656,1.182,-86.792,29.907,148.621
-0.463,-0.435,1.115,-91.919,44.617,142.395
-0.374,-0.312,1.015,-92.529,58.655,127.686
-0.320,-0.277,0.924,-94.666,67.810,105.286
-0.266,-0.225,0.877,-93.079,71.472,82.825
-0.237,-0.209,0.867,-90.637,71.838,60.974
-0.230,-0.201,0.901,-90.454,72.083,42.175
-0.202,-0.135,1.014,-88.867,72.327,25.452
-0.181,-0.039,1.129,-85.510,78.430,9.338
-0.184,0.039,1.205,-82.581,92.285,-9.705
-0.131,0.064,1.257,-80.261,107.971,-34.485
-0.076,0.016,1.291,-80.444,122.864,-60.913
-0.049,0.028,1.332,-81.238,135.986,-86.426
-0.064,0.119,1.402,-79.041,148.926,-109.253
-0.120,0.097,1.361,-42.725,162.964,-133.118
-0.144,0.030,1.275,1.099,174.255,-159.485
-0.187,0.005,1.147,1.587,196.899,-181.335
-0.289,-0.144,0.976,-18.372,222.961,-209.656
-0.408,-0.427,0.654,-39.063,243.225,-236.145
-0.336,-0.826,0.237,-53.955,254.700,-247.986
-0.244,-0.930,-0.269,-69.214,246.826,-229.187
-0.133,-0.860,-0.495,-77.820,200.256,-191.833
0.004,-0.636,-0.315,-44.067,119.507,-157.349
0.109,-0.326,0.063,-7.507,42.603,-131.836
0.153,-0.236,0.401,-4.395,0.671,-125.793
0.081,-0.466,0.617,-29.541,-11.414,-134.644
-0.014,-0.777,0.762,-53.589,-9.399,-141.174
-0.032,-0.877,0.900,-63.293,-8.545,-126.343
-0.019,-0.740,1.018,-57.800,-9.155,-95.459
0.003,-0.621,1.128,-49.866,-5.920,-71.472
-0.025,-0.600,1.097,-39.734,3.357,-61.157
-0.014,-0.607,0.953,-29.907,14.771,-53.040
0.005,-0.568,0.847,-22.278,17.639,-42.175
0.020,-0.500,0.801,-17.151,12.817,-32.776
0.039,-0.399,0.855,-16.235,6.409,-26.062
0.034,-0.328,0.920,-19.287,2.075,-23.621
0.028,-0.340,0.874,-23.315,3.845,-25.452
0.018,-0.355,0.830,-26.489,4.211,-26.672
0.018,-0.375,0.876,-23.315,-2.747,-26.672
0.001,-0.437,0.943,-20.813,-9.094,-27.100
-0.025,-0.519,1.018,-23.315,-11.963,-26.611
-0.041,-0.562,1.099,-23.560,-13.855,-22.400
-0.050,-0.529,1.189,-17.334,-14.465,-14.160
-0.072,-0.499,1.223,-9.399,-11.475,-7.141
-0.085,-0.492,1.183,-3.052,-4.333,-1.892
-0.071,-0.429,1.126,0.122,2.563,5.066
-0.040,-0.337,1.051,3.723,6.714,10.193
-0.017,-0.278,0.976,6.958,7.935,9.827
-0.006,-0.257,0.893,6.897,7.080,6.714
0.006,-0.249,0.864,7.324,2.991,2.686
0.006,-0.261,0.891,6.653,-2.625,-1.282
-0.005,-0.305,0.904,3.845,-5.310,-5.005
-0.019,-0.388,0.939,2.563,-8.301,-6.958
-0.022,-0.460,0.994,1.831,-11.169,-7.080
-0.021,-0.485,1.066,-2.930,-11.963,-4.517
-0.027,-0.473,1.087,-6.836,-9.094,-0.305
-0.040,-0.434,1.063,-4.028,-5.493,4.333
-0.050,-0.389,1.075,0.854,-3.723,7.935
-0.050,-0.329,1.078,2.075,-1.709,9.216
-0.050,-0.290,1.035,1.404,2.258,8.057
-0.045,-0.286,0.978,2.563,5.005,5.493
-0.025,-0.277,0.925,5.493,4.822,3.418
-0.008,-0.255,0.916,6.409,2.686,1.587
-0.005,-0.260,0.892,5.249,1.099,-0.977
-0.007,-0.291,0.887,6.409,-1.404,-3.845
-0.003,-0.323,0.911,7.690,-4.517,-5.310
-0.011,-0.385,0.959,2.991,-6.042,-6.042
-0.028,-0.427,1.015,-0.610,-6.470,-5.554
-0.035,-0.421,1.027,1.404,-5.554,-2.441
-0.034,-0.417,1.031,1.343,-2.808,0.916
-0.042,-0.408,1.052,0.000,-0.366,3.296
-0.035,-0.373,1.045,0.122,2.563,5.188
-0.027,-0.348,1.015,1.709,4.761,5.371
-0.023,-0.341,0.963,3.967,6.470,4.456
-0.008,-0.314,0.953,5.859,5.798,3.601
0.002,-0.300,0.928,6.287,5.005,2.441
0.010,-0.321,0.865,9.155,4.944,0.610
0.019,-0.306,0.857,12.451,1.343,0.427
0.014,-0.318,0.884,11.658,-2.563,-0.305
0.008,-0.368,0.911,9.094,-4.456,-1.892
-0.003,-0.407,0.950,5.676,-6.104,-1.587
-0.019,-0.429,1.001,3.906,-7.446,-0.488
-0.029,-0.392,1.047,6.348,-7.812,1.892
-0.043,-0.377,1.078,6.836,-6.165,3.174
-0.055,-0.391,1.049,4.639,-2.747,2.563
-0.050,-0.379,1.011,5.310,-0.122,3.296
-0.041,-0.352,0.998,8.911,0.061,4.272
-0.029,-0.326,0.994,11.169,-0.061,3.906
-0.018,-0.316,0.967,11.169,0.732,2.747
-0.006,-0.317,0.934,11.353,1.526,1.404
-0.004,-0.334,0.903,10.986,1.343,0.122
-0.000,-0.360,0.905,9.705,-0.366,-1.038
-0.000,-0.392,0.930,7.141,-2.625,-1.282
-0.003,-0.387,0.979,5.981,-4.700,-1.160
-0.020,-0.408,1.024,4.639,-5.432,-1.099
-0.038,-0.441,1.037,3.723,-4.211,-1.221
-0.036,-0.402,1.029,5.798,-2.686,1.404
-0.032,-0.373,1.018,8.728,-1.343,3.113
-0.025,-0.351,0.986,9.888,0.244,3.113
-0.019,-0.349,0.963,9.949,0.549,1.892

-1.018,-0.647,1.316,175.415,-119.812,-176.697
-1.017,-0.674,1.471,161.560,-82.825,-192.749
-0.998,-0.724,1.710,144.897,-42.969,-208.374
-0.885,-0.771,1.778,127.502,10.071,-218.750
-0.859,-0.742,1.604,108.765,72.632,-216.553
-0.885,-0.754,1.417,75.256,120.178,-216.370
-0.837,-0.667,1.492,37.048,149.170,-211.792
-0.835,-0.510,1.631,1.282,181.091,-206.604
-0.896,-0.427,1.594,-28.076,230.591,-213.867
-0.992,-0.502,1.347,-43.762,285.217,-237.366
-1.056,-0.685,1.252,-71.167,321.777,-265.320
-1.090,-0.888,1.255,-96.191,334.412,-283.875
-1.092,-1.077,1.104,-113.464,344.116,-293.152
-1.091,-1.243,0.935,-118.225,350.281,-290.710
-1.083,-1.320,0.745,-105.225,342.468,-273.071
-1.044,-1.342,0.691,-92.957,326.538,-237.671
-0.924,-1.293,0.741,-98.999,308.594,-188.904
-0.786,-1.064,0.849,-98.145,286.377,-132.812
-0.654,-0.858,0.860,-76.233,265.015,-82.520
-0.512,-0.711,0.670,-56.274,255.920,-45.349
-0.389,-0.611,0.451,-43.518,244.934,-20.569
-0.282,-0.559,0.247,-21.362,222.046,-4.517
-0.205,-0.536,0.234,-4.944,187.073,9.583
-0.135,-0.587,0.368,-4.883,152.405,20.386
-0.077,-0.582,0.434,-4.639,127.747,33.325
-0.042,-0.530,0.478,8.057,105.164,48.584
-0.016,-0.465,0.534,24.902,81.421,60.791
-0.026,-0.458,0.565,32.837,63.171,69.763
-0.040,-0.531,0.587,17.151,52.856,76.294
-0.059,-0.537,0.599,2.380,42.297,85.388
-0.089,-0.403,0.675,4.761,26.306,100.159
-0.096,-0.210,0.775,0.305,14.221,111.328
-0.057,-0.107,0.855,-5.310,4.883,115.173
-0.009,0.113,1.013,-7.935,-0.061,116.333
0.034,0.215,0.992,-10.071,6.836,101.929
0.040,0.127,0.880,-11.414,13.855,76.294
0.035,-0.004,0.860,-9.338,11.719,54.138
0.036,-0.051,0.950,-10.864,5.371,41.138
0.030,-0.074,1.062,-14.343,2.869,31.860
0.001,-0.145,1.091,-11.353,5.554,23.132
-0.016,-0.216,1.040,-4.028,10.986,18.738
-0.011,-0.257,1.023,-0.977,14.099,18.188
0.012,-0.223,1.034,-1.892,14.893,19.531
0.031,-0.203,1.041,-3.052,15.503,19.531
0.042,-0.255,1.007,-6.226,16.785,16.052
0.056,-0.263,0.977,-5.066,15.076,14.160
0.067,-0.223,0.948,-0.610,10.437,14.038
0.080,-0.171,0.938,3.906,5.005,12.329
0.078,-0.143,0.960,5.676,-0.366,7.935
0.086,-0.117,0.948,6.775,-3.357,2.686
0.086,-0.124,0.944,7.935,-4.944,-2.502
0.072,-0.203,0.936,7.446,-6.226,-7.568
0.051,-0.299,0.937,7.507,-8.118,-10.193
0.039,-0.413,1.017,7.263,-11.475,-9.399
0.031,-0.449,1.141,3.601,-12.512,-5.066
0.027,-0.370,1.204,1.160,-8.911,1.892
0.030,-0.314,1.179,4.578,-2.686,6.470
0.035,-0.286,1.085,8.911,3.174,7.751
0.049,-0.265,1.000,12.268,5.920,8.667
0.060,-0.227,0.967,14.221,4.089,8.484
0.066,-0.182,0.938,14.221,0.732,6.958
0.061,-0.192,0.915,14.160,-2.991,3.235
0.063,-0.191,0.892,13.245,-6.409,-0.061
0.051,-0.188,0.895,12.573,-10.071,-2.441
0.044,-0.183,0.950,16.174,-14.343,-4.578
0.032,-0.214,0.995,20.874,-16.785,-6.104
0.001,-0.379,1.052,19.531,-16.418,-9.216
0.021,-0.460,1.080,7.874,-11.292,-6.836
0.049,-0.393,1.063,-0.061,-5.310,2.075
0.038,-0.394,1.030,2.136,-2.625,6.348
0.036,-0.338,1.018,7.690,-2.686,9.766
0.028,-0.292,1.044,12.512,-4.150,12.146
0.019,-0.312,1.056,13.550,-4.395,10.742
0.022,-0.314,1.060,11.780,-3.418,10.559
0.038,-0.257,1.030,11.414,-1.404,12.573
0.047,-0.234,0.984,14.465,-0.549,12.390
0.067,-0.221,0.939,17.334,-1.343,10.620
0.085,-0.182,0.906,15.625,-3.052,8.484
0.079,-0.180,0.887,13.672,-5.371,4.333
0.047,-0.222,0.921,14.099,-9.338,-0.427
0.018,-0.266,0.995,15.991,-13.428,-3.113
0.011,-0.304,1.052,13.611,-13.306,-3.906
-0.000,-0.354,1.086,6.348,-8.911,-3.479
-0.002,-0.391,1.117,5.676,-5.615,-2.136
0.006,-0.385,1.086,8.850,-2.502,1.099
0.016,-0.363,1.029,10.986,0.854,4.333
0.029,-0.332,1.004,11.292,1.953,6.592
0.037,-0.319,0.987,12.268,1.892,7.263
0.045,-0.312,0.971,12.695,1.587,7.141
0.053,-0.290,0.945,13.000,0.854,7.385
0.053,-0.264,0.922,14.648,-0.793,6.958
0.049,-0.240,0.920,16.235,-3.357,5.981
0.039,-0.238,0.925,16.113,-5.005,3.967
0.033,-0.254,0.933,15.686,-6.775,1.282
0.025,-0.290,0.953,14.893,-8.423,-0.549
0.025,-0.322,0.975,13.123,-10.010,0.427
0.021,-0.343,1.059,9.644,-10.925,0.916
0.003,-0.420,1.073,5.249,-6.592,-1.465
0.003,-0.416,1.041,2.319,-1.404,1.465
0.011,-0.374,1.038,3.418,0.732,6.104
0.013,-0.334,1.010,5.798,1.953,7.812
0.026,-0.293,0.957,7.690,2.869,8.301
0.029,-0.285,0.948,8.484,0.549,6.714
0.029,-0.281,0.940,5.005,-0.854,4.761
0.031,-0.274,0.937,2.869,-1.526,3.296
0.029,-0.275,0.959,3.357,-2.502,1.892
0.024,-0.291,0.954,3.296,-2.258,0.427
0.013,-0.315,0.973,3.174,-2.075,-0.854
0.006,-0.344,0.989,3.174,-1.953,-1.221
0.008,-0.371,0.988,2.686,-0.671,-0.427
0.021,-0.372,0.981,2.808,-0.305,1.587
0.030,-0.384,0.969,3.479,-0.427,3.235
0.035,-0.385,0.949,3.113,-0.977,4.883
0.036,-0.376,0.942,3.784,-2.563,6.653
0.036,-0.345,0.957,5.554,-4.578,8.118
0.026,-0.329,0.979,6.165,-5.798,8.545
0.016,-0.323,0.989,5.066,-5.859,8.057
0.006,-0.307,1.001,5.676,-5.798,7.690
0.001,-0.311,1.001,6.958,-4.883,7.446

-0.733,-0.630,1.443,179.443,-176.392,-131.226
-0.684,-0.689,1.300,156.372,-120.178,-131.409
-0.632,-0.652,1.193,138.977,-77.576,-130.005
-0.580,-0.551,1.284,123.596,-53.162,-131.470
-0.557,-0.376,1.386,107.056,-29.480,-137.146
-0.571,-0.333,1.455,87.891,-0.549,-152.405
-0.621,-0.312,1.515,64.331,30.457,-169.678
-0.694,-0.216,1.614,45.227,63.660,-185.913
-0.804,-0.169,1.651,32.349,100.220,-212.097
-0.910,-0.351,1.576,15.747,144.531,-246.948
-0.987,-0.589,1.432,4.700,190.979,-281.006
-1.027,-0.809,1.300,-12.329,228.699,-300.964
-1.025,-0.942,0.997,-17.578,250.671,-302.734
-1.036,-0.985,0.932,-23.437,247.253,-295.044
-1.068,-0.945,0.996,-61.157,238.647,-284.912
-1.115,-0.969,1.012,-81.360,232.910,-276.794
-1.078,-0.994,0.974,-84.290,225.281,-261.292
-1.021,-0.917,0.952,-76.660,212.891,-230.103
-0.933,-0.823,0.900,-71.350,201.721,-192.200
-0.819,-0.805,0.809,-61.096,192.078,-157.837
-0.730,-0.775,0.752,-49.133,179.932,-122.070
-0.623,-0.771,0.659,-44.922,167.725,-89.417
-0.507,-0.761,0.612,-35.034,151.428,-62.805
-0.417,-0.709,0.698,-23.682,128.296,-40.955
-0.365,-0.664,0.832,-9.949,108.093,-23.376
-0.333,-0.613,0.939,-3.662,98.633,-7.202
-0.319,-0.571,0.936,-3.845,100.708,7.996
-0.294,-0.528,0.909,-0.488,103.821,21.973
-0.290,-0.501,0.957,9.827,100.769,32.959
-0.284,-0.493,0.981,22.888,97.656,40.955
-0.264,-0.471,0.934,32.898,97.961,49.500
-0.243,-0.424,0.828,38.391,99.060,58.838
-0.206,-0.365,0.699,37.903,97.656,66.528
-0.161,-0.291,0.592,39.490,89.661,71.655
-0.139,-0.248,0.560,40.588,75.928,72.083
-0.139,-0.307,0.599,36.133,61.096,67.505
-0.137,-0.398,0.616,28.564,49.072,64.026
-0.131,-0.415,0.659,25.146,38.635,68.970
-0.122,-0.466,0.732,17.456,31.006,77.026
-0.132,-0.543,0.792,3.662,27.405,85.815
-0.124,-0.498,0.809,-4.211,26.550,101.135
-0.086,-0.399,0.833,7.080,20.081,117.188
-0.067,-0.230,0.927,25.269,10.132,129.578
-0.044,-0.116,0.960,27.466,8.789,130.066
-0.085,-0.288,0.985,9.460,14.099,116.394
-0.116,-0.493,0.887,-34.119,29.785,107.422
-0.108,-0.459,0.832,-45.105,31.067,115.723
-0.073,-0.311,0.872,-14.404,13.733,127.625
-0.035,-0.162,0.877,10.742,0.732,131.226
-0.007,-0.105,0.889,18.860,-5.493,124.390
-0.009,-0.171,0.892,23.499,-9.399,112.244
-0.010,-0.279,0.828,20.325,-8.667,103.638
-0.012,-0.330,0.783,14.404,-10.742,103.394
-0.013,-0.336,0.794,12.939,-18.677,105.774
0.009,-0.234,0.886,19.836,-30.457,108.459
0.040,-0.113,0.991,28.198,-39.978,107.300
0.070,-0.019,1.054,26.855,-41.016,97.717
0.075,0.001,1.071,24.170,-37.842,80.933
0.067,-0.063,1.067,20.630,-32.654,61.768
0.040,-0.198,1.058,15.137,-27.100,44.800
0.017,-0.325,1.037,8.728,-21.484,34.485
0.032,-0.316,1.016,7.690,-18.066,33.447
0.046,-0.257,1.023,12.146,-18.311,34.302
0.059,-0.201,1.039,13.733,-18.005,31.372
0.055,-0.172,1.056,14.709,-16.968,24.780
0.045,-0.196,1.083,13.916,-14.343,15.625
0.032,-0.243,1.070,13.245,-10.254,6.958
0.028,-0.286,1.027,13.062,-5.859,0.977
0.038,-0.303,1.003,12.817,-4.150,-2.258
0.036,-0.333,0.988,13.733,-3.906,-4.700
0.028,-0.390,0.988,12.634,-3.967,-6.287
0.026,-0.408,1.002,8.423,-4.211,-6.042
0.032,-0.382,1.029,7.019,-4.150,-4.150
0.031,-0.364,1.027,8.545,-2.747,-2.808
0.035,-0.351,0.980,10.376,0.610,-2.197
0.032,-0.341,0.961,11.292,1.526,-1.953
0.036,-0.340,0.965,10.254,0.183,-3.052
0.036,-0.344,0.986,7.324,-0.671,-4.578
0.042,-0.340,0.999,5.676,0.183,-5.737
0.039,-0.347,0.986,6.836,2.136,-6.348
0.037,-0.378,0.929,8.240,4.578,-6.714
0.046,-0.398,0.875,7.874,4.639,-6.042
0.053,-0.376,0.897,6.958,0.366,-4.944
0.046,-0.359,0.928,8.484,-3.906,-4.578
0.028,-0.392,0.929,9.155,-5.371,-5.493
0.017,-0.425,0.959,5.310,-5.981,-5.615
0.013,-0.400,0.997,2.563,-6.104,-3.662
0.014,-0.360,0.979,4.089,-4.395,-1.526
0.019,-0.335,0.927,6.775,-2.808,-1.160
0.018,-0.333,0.890,8.972,-3.418,-2.075
0.006,-0.417,0.937,11.047,-7.263,-4.639
-0.003,-0.452,1.010,7.446,-10.437,-5.920
-0.010,-0.422,1.024,2.991,-7.996,-3.845
-0.020,-0.382,1.016,6.409,-4.883,-1.526
-0.019,-0.347,0.984,9.521,-2.747,-0.671
-0.015,-0.311,0.926,13.794,-1.831,-1.770
-0.006,-0.315,0.917,21.423,-4.028,-4.150
-0.018,-0.343,0.951,19.897,-6.836,-7.202
-0.027,-0.444,0.986,14.709,-7.568,-10.498
-0.030,-0.508,0.964,10.864,-4.700,-9.949
-0.021,-0.463,0.977,10.132,-3.601,-4.883
-0.010,-0.396,0.992,11.841,-3.174,-0.427
-0.012,-0.400,0.966,13.184,-1.465,-0.610
-0.023,-0.413,0.947,12.451,-0.793,-2.014
-0.025,-0.446,0.953,10.620,-1.465,-2.075
-0.012,-0.422,0.947,6.592,-0.732,-0.732
-0.008,-0.396,0.958,5.249,-0.671,0.000
0.000,-0.394,0.935,5.737,-0.122,-0.305
0.007,-0.409,0.895,3.357,0.793,-0.793
0.012,-0.418,0.894,1.160,-1.038,-0.793
0.007,-0.414,0.922,1.831,-3.479,-0.427
-0.001,-0.392,0.949,3.296,-4.333,0.305
-0.017,-0.396,0.964,3.662,-4.150,0.427
-0.032,-0.416,0.975,2.197,-3.418,0.061
-0.035,-0.411,0.987,1.587,-2.625,0.183
-0.031,-0.388,0.979,2.930,-1.404,0.000
-0.021,-0.388,0.960,3.174,-0.183,-0.488
-0.018,-0.422,0.947,1.343,-0.061,-1.892
-0.015,-0.439,0.954,0.488,-0.916,-2.319

-0.676,-0.756,1.326,169.861,-148.499,-74.646
-0.653,-0.745,1.347,162.109,-105.957,-78.918
-0.607,-0.705,1.214,145.752,-56.030,-83.862
-0.556,-0.738,1.012,123.901,-14.282,-93.628
-0.558,-0.776,0.911,105.652,10.132,-102.905
-0.554,-0.648,0.887,91.553,22.095,-104.736
-0.519,-0.446,0.973,80.017,27.954,-108.459
-0.545,-0.341,1.136,74.585,34.058,-125.305
-0.594,-0.347,1.222,67.383,51.941,-149.048
-0.636,-0.353,1.154,58.594,77.942,-168.091
-0.688,-0.387,1.063,40.161,99.854,-184.082
-0.749,-0.477,0.970,10.254,115.845,-200.867
-0.751,-0.548,1.001,-28.259,128.418,-216.370
-0.789,-0.604,0.987,-57.861,140.320,-227.661
-0.802,-0.641,1.015,-88.135,154.663,-238.342
-0.783,-0.488,1.238,-87.708,164.124,-250.977
-0.839,-0.402,1.417,-68.054,180.176,-274.475
-0.943,-0.419,1.470,-75.439,209.290,-301.453
-1.056,-0.496,1.392,-85.571,238.831,-326.721
-1.074,-0.580,1.257,-80.261,257.629,-345.642
-1.137,-0.693,1.118,-69.031,265.808,-356.689
-1.149,-0.858,1.088,-63.171,264.282,-359.558
-1.105,-0.977,1.120,-69.580,259.399,-343.323
-1.125,-1.218,1.068,-56.702,256.348,-311.829
-1.083,-1.353,0.879,-42.786,255.981,-263.489
-0.945,-1.287,0.696,-37.842,249.084,-196.045
-0.793,-1.089,0.691,-28.748,229.126,-124.390
-0.627,-0.825,0.794,-15.442,205.200,-64.331
-0.525,-0.633,0.988,-7.935,187.317,-29.114
-0.462,-0.638,1.079,4.822,178.528,-14.221
-0.441,-0.644,1.060,17.517,179.565,0.549
-0.415,-0.626,0.976,22.644,184.570,21.118
-0.366,-0.517,0.896,28.259,185.364,43.274
-0.326,-0.366,0.813,35.278,180.969,63.599
-0.290,-0.225,0.706,46.021,175.842,76.416
-0.243,-0.173,0.653,45.898,167.725,79.346
-0.186,-0.265,0.651,47.302,154.968,73.242
-0.149,-0.382,0.651,53.711,139.587,70.313
-0.111,-0.437,0.568,53.894,128.174,76.233
-0.079,-0.494,0.460,43.030,118.713,87.524
-0.057,-0.544,0.418,27.466,104.370,99.121
-0.060,-0.558,0.371,26.855,84.473,111.755
-0.101,-0.585,0.288,24.231,64.941,128.723
-0.163,-0.638,0.196,0.000,50.476,151.245
-0.184,-0.620,0.342,-13.306,24.841,177.307
-0.144,-0.566,0.772,-6.348,-9.094,206.055
-0.099,-0.228,0.902,11.597,-23.926,239.807
0.017,0.155,0.751,21.729,-20.142,255.798
0.125,0.233,0.719,29.358,-28.564,240.540
0.184,0.164,0.735,22.583,-39.001,210.937
0.225,0.134,0.700,18.066,-46.326,184.021
0.230,0.100,0.767,23.010,-59.265,159.912
0.208,0.075,0.854,31.311,-69.336,137.268
0.159,0.073,0.950,38.086,-75.439,117.493
0.110,0.067,0.999,37.842,-74.524,100.403
0.078,0.061,0.994,38.940,-69.946,84.961
0.056,-0.012,0.995,44.128,-67.017,69.458
0.048,-0.121,1.008,48.218,-64.514,55.725
0.058,-0.186,0.993,46.204,-59.631,47.729
0.083,-0.199,0.997,43.579,-56.763,43.518
0.070,-0.192,1.074,42.175,-57.434,39.368
0.081,-0.176,1.156,39.001,-54.871,34.363
0.095,-0.149,1.144,31.433,-45.471,28.564
0.087,-0.196,1.128,22.461,-34.851,19.775
0.069,-0.300,1.085,14.404,-26.855,10.986
0.040,-0.356,1.037,11.414,-21.545,7.141
0.006,-0.368,1.091,12.878,-21.851,6.836
0.001,-0.302,1.135,15.808,-20.630,8.362
-0.007,-0.257,1.134,16.296,-16.113,7.874
-0.011,-0.295,1.091,12.329,-9.460,3.723
-0.009,-0.353,1.063,8.179,-5.005,0.122
0.003,-0.352,1.036,8.789,-3.418,0.183
0.025,-0.319,0.998,12.817,-2.319,1.526
0.031,-0.319,0.967,15.442,-2.991,1.404
0.035,-0.336,0.935,13.306,-3.906,0.427
0.039,-0.352,0.944,9.888,-6.470,0.305
0.043,-0.349,0.974,9.155,-10.193,0.549
0.040,-0.344,0.994,10.376,-12.268,1.160
0.028,-0.372,0.977,9.888,-12.634,1.160
0.035,-0.405,0.933,5.798,-12.207,1.587
0.053,-0.385,0.922,4.822,-14.648,3.540
0.045,-0.349,0.953,8.545,-18.799,5.066
0.029,-0.318,0.998,12.268,-21.790,5.066
0.017,-0.285,1.014,13.367,-22.278,3.967
-0.002,-0.292,1.049,10.376,-20.325,1.099
-0.018,-0.324,1.070,7.874,-16.602,-1.953
-0.017,-0.357,1.052,7.324,-10.437,-3.174
0.004,-0.365,1.026,7.080,-5.310,-2.441
0.022,-0.362,0.986,6.409,-2.686,-1.709
0.032,-0.359,0.941,6.409,-1.465,-1.526
0.036,-0.359,0.920,6.653,-2.747,-1.465
0.020,-0.381,0.920,6.348,-5.432,-1.770
0.003,-0.398,0.957,5.249,-8.850,-1.892
-0.005,-0.379,1.014,5.127,-11.780,-0.488
-0.014,-0.346,1.043,6.897,-10.925,0.854
-0.024,-0.346,1.038,8.179,-7.141,0.549
-0.022,-0.354,1.004,8.728,-3.662,0.122
-0.015,-0.361,0.961,8.179,-1.221,-0.061
-0.016,-0.358,0.960,6.775,-1.465,-0.305
-0.018,-0.348,0.992,6.714,-2.747,-0.977
-0.020,-0.334,1.005,7.690,-2.319,-1.953
-0.020,-0.347,0.980,8.362,0.183,-3.296
-0.025,-0.397,0.930,6.165,2.625,-4.456
-0.021,-0.408,0.950,3.235,1.343,-3.235
-0.017,-0.377,0.992,3.235,-1.343,-1.282
-0.017,-0.348,0.993,4.883,-0.977,-0.610
-0.024,-0.374,0.965,4.578,-0.061,-1.587
-0.017,-0.428,0.939,1.831,-0.183,-2.502
-0.008,-0.438,0.950,0.000,-1.709,-0.916
-0.008,-0.397,0.990,2.258,-3.479,1.465
-0.005,-0.343,0.976,4.517,-2.625,3.113
-0.010,-0.326,0.959,4.517,-1.709,2.258
-0.011,-0.346,0.956,4.211,-2.563,-0.244
-0.018,-0.369,0.964,3.967,-3.296,-2.502
-0.018,-0.369,0.981,4.700,-3.723,-2.930
-0.013,-0.362,0.975,6.165,-2.930,-2.380
-0.006,-0.380,0.947,7.080,-1.038,-2.380
-0.006,-0.409,0.930,6.653,-0.793,-2.869
-0.001,-0.401,0.942,6.958,-2.563,-2.014

-0.730,-0.610,1.345,128.723,-103.638,-41.809
-0.728,-0.647,1.305,114.563,-66.833,-51.208
-0.691,-0.634,1.230,96.497,-31.494,-58.838
-0.628,-0.542,1.247,79.651,-4.272,-65.002
-0.593,-0.445,1.294,60.852,19.165,-74.524
-0.582,-0.305,1.347,43.274,42.114,-86.731
-0.622,-0.199,1.342,28.992,65.918,-103.210
-0.631,-0.083,1.302,12.634,88.379,-121.460
-0.651,-0.053,1.361,-3.784,105.225,-145.142
-0.701,-0.004,1.292,-14.709,125.305,-175.598
-0.716,0.022,1.265,-29.602,143.738,-209.167
-0.704,0.076,1.333,-35.400,157.288,-246.155
-0.779,0.037,1.453,-33.325,174.988,-290.161
-0.925,-0.280,1.345,-28.259,202.576,-338.745
-0.990,-0.696,1.082,-21.851,229.370,-372.803
-1.013,-0.971,0.844,-10.010,231.812,-374.451
-0.993,-1.000,0.807,-1.831,209.778,-351.440
-0.990,-0.950,0.943,-6.287,184.265,-324.951
-0.999,-0.927,1.075,-15.747,168.335,-302.551
-0.950,-0.951,1.224,-21.240,164.124,-282.166
-1.021,-1.043,1.166,-38.879,179.138,-253.174
-0.953,-1.164,0.933,-49.927,197.937,-213.928
-0.856,-1.139,0.970,-53.040,191.650,-160.828
-0.739,-1.008,1.044,-49.561,181.519,-107.056
-0.629,-0.800,1.105,-39.368,176.086,-60.730
-0.553,-0.654,1.146,-27.527,175.476,-29.724
-0.504,-0.600,1.167,-15.442,178.345,-9.644
-0.467,-0.606,1.134,-12.634,184.570,3.418
-0.417,-0.653,1.070,-0.488,190.063,15.869
-0.374,-0.580,1.004,19.592,189.636,36.194
-0.342,-0.446,0.859,40.283,188.599,58.838
-0.296,-0.333,0.673,56.396,184.509,74.829
-0.238,-0.286,0.569,63.354,172.241,80.933
-0.182,-0.311,0.514,65.186,154.663,80.933
-0.142,-0.381,0.481,68.054,135.437,81.360
-0.115,-0.456,0.394,67.017,117.920,87.769
-0.116,-0.501,0.366,49.683,101.746,98.816
-0.127,-0.589,0.439,39.001,80.200,108.765
-0.174,-0.715,0.538,48.828,55.847,120.361
-0.205,-0.722,0.560,44.495,42.053,141.663
-0.244,-0.595,0.557,38.391,30.090,169.189
-0.211,-0.496,0.539,48.767,11.047,196.289
-0.174,-0.325,0.603,57.434,-9.827,221.497
-0.055,-0.086,0.718,53.772,-29.114,233.826
0.023,0.081,0.881,45.959,-41.199,228.271
0.083,0.176,0.754,47.974,-36.438,209.290
0.135,0.234,0.634,38.513,-32.776,186.218
0.167,0.227,0.654,26.428,-39.551,160.706
0.193,0.231,0.681,21.240,-46.692,136.353
0.208,0.176,0.708,21.240,-52.368,112.610
0.189,0.063,0.782,13.916,-57.068,88.379
0.154,-0.054,0.849,10.376,-60.791,68.665
0.118,-0.128,0.902,13.855,-63.171,54.993
0.090,-0.210,0.948,20.996,-64.697,45.776
0.051,-0.285,1.045,22.400,-64.636,39.185
0.026,-0.296,1.111,24.292,-61.584,37.048
0.022,-0.301,1.128,24.475,-54.504,35.400
0.004,-0.317,1.151,20.935,-47.546,32.166
0.000,-0.314,1.145,15.259,-39.978,29.480
0.014,-0.271,1.098,11.841,-32.532,28.015
0.021,-0.291,1.050,10.681,-28.687,24.170
0.029,-0.331,1.041,10.925,-26.855,20.142
0.043,-0.329,1.066,14.221,-27.344,18.555
0.051,-0.292,1.084,18.494,-27.161,16.846
0.049,-0.256,1.065,19.836,-24.353,13.428
0.053,-0.227,1.053,19.165,-21.790,8.545
0.042,-0.255,1.058,17.761,-20.325,2.075
0.031,-0.348,1.056,13.245,-17.517,-4.028
0.020,-0.402,1.062,9.094,-14.771,-6.165
0.008,-0.444,1.103,6.836,-13.611,-6.226
0.013,-0.436,1.078,7.446,-9.399,-4.578
0.017,-0.432,1.036,9.583,-5.493,-1.648
0.025,-0.418,0.999,9.216,-3.906,0.305
0.042,-0.368,0.982,7.385,-3.418,3.174
0.055,-0.315,0.964,6.775,-4.150,3.967
0.062,-0.285,0.938,7.568,-4.883,2.014
0.047,-0.339,0.925,7.263,-6.653,-2.136
0.040,-0.368,0.936,5.188,-8.484,-4.089
0.032,-0.357,0.964,5.859,-10.437,-3.296
0.028,-0.325,0.975,8.484,-10.803,-3.052
0.023,-0.313,0.980,9.460,-10.254,-3.906
0.003,-0.381,0.984,8.179,-9.766,-6.042
0.012,-0.453,0.955,3.662,-8.118,-6.592
0.022,-0.455,0.984,-0.061,-7.263,-4.639
0.023,-0.418,1.008,2.380,-7.324,-1.770
0.033,-0.355,0.999,6.592,-4.761,1.038
0.029,-0.331,0.938,10.071,-2.808,1.038
0.014,-0.341,0.928,10.437,-3.113,-0.793
-0.001,-0.385,0.975,8.118,-5.493,-3.052
0.009,-0.386,0.979,5.554,-5.188,-3.418
0.003,-0.388,0.979,6.165,-4.333,-3.052
0.000,-0.370,0.960,8.911,-3.906,-2.502
0.004,-0.356,0.961,9.827,-4.150,-1.770
0.003,-0.401,0.963,8.484,-4.272,-3.174
-0.004,-0.454,0.953,5.859,-3.662,-3.906
0.001,-0.422,0.965,4.883,-3.906,-1.831
0.001,-0.371,0.980,6.775,-4.211,0.549
-0.008,-0.371,0.974,7.019,-3.540,0.183
-0.013,-0.400,0.967,5.615,-2.563,-1.343
-0.019,-0.402,0.957,5.371,-1.892,-1.038
-0.015,-0.375,0.946,7.568,-1.160,0.366
-0.014,-0.346,0.951,10.193,-1.648,0.671
-0.012,-0.367,0.929,9.827,-1.343,-0.732
-0.004,-0.410,0.899,6.348,-1.648,-2.686
-0.007,-0.417,0.937,5.371,-3.967,-2.625
-0.008,-0.398,0.951,7.568,-5.493,-1.648
-0.013,-0.392,0.939,8.606,-5.249,-1.404
-0.017,-0.423,0.952,5.981,-5.981,-2.380
-0.017,-0.410,0.952,4.578,-6.348,-1.709
-0.015,-0.378,0.955,6.165,-6.775,-0.916
-0.020,-0.378,0.975,6.836,-6.958,-1.282
-0.040,-0.466,0.979,5.188,-6.104,-2.991
-0.034,-0.487,0.983,2.441,-4.517,-1.465
-0.026,-0.422,1.004,3.418,-4.211,3.113
-0.024,-0.375,0.989,5.310,-2.625,4.517
-0.024,-0.364,0.947,5.432,-0.916,3.418
-0.024,-0.387,0.940,4.089,-1.587,1.404
-0.023,-0.391,0.943,2.502,-2.747,-0.122
-0.023,-0.387,0.965,3.479,-3.967,-1.221

-0.786,-0.539,1.328,192.932,-149.048,-70.618
-0.814,-0.672,1.247,184.021,-99.915,-88.928
-0.742,-0.638,1.225,167.236,-58.960,-97.046
-0.723,-0.646,1.307,154.907,-24.963,-105.225
-0.677,-0.586,1.390,148.682,12.024,-115.967
-0.670,-0.326,1.500,135.071,52.612,-122.742
-0.678,-0.233,1.546,119.080,99.060,-142.212
-0.694,-0.366,1.376,99.182,152.161,-170.532
-0.727,-0.482,1.071,62.805,194.824,-190.857
-0.721,-0.539,0.951,-1.465,212.341,-201.111
-0.691,-0.429,1.110,-62.988,208.313,-208.313
-0.680,-0.200,1.320,-98.816,207.642,-223.206
-0.791,-0.305,1.174,-112.244,229.736,-263.550
-0.840,-0.334,1.019,-119.446,246.216,-305.725
-0.896,-0.335,1.219,-98.206,240.601,-340.942
-1.026,-0.597,1.381,-25.757,229.248,-371.582
-1.128,-0.929,1.190,-7.751,237.122,-389.160
-1.220,-1.146,1.131,-26.733,243.652,-384.705
-1.256,-1.213,1.231,-53.772,239.014,-360.901
-1.277,-1.187,1.431,-83.557,236.938,-326.172
-1.236,-1.218,1.513,-96.375,249.084,-287.903
-1.198,-1.335,1.528,-91.064,272.034,-242.126
-1.110,-1.419,1.160,-58.716,295.898,-188.660
-0.980,-1.356,0.890,-57.373,306.702,-117.859
-0.784,-1.161,0.675,-39.734,299.805,-44.556
-0.565,-0.782,0.601,5.188,274.109,22.278
-0.432,-0.437,0.645,35.950,245.422,65.369
-0.345,-0.373,0.651,40.955,227.234,73.914
-0.276,-0.486,0.622,34.729,213.074,66.650
-0.242,-0.581,0.627,44.556,194.275,69.763
-0.232,-0.587,0.648,56.213,175.354,84.839
-0.204,-0.592,0.629,57.068,161.560,98.267
-0.196,-0.672,0.531,59.326,150.330,112.183
-0.205,-0.761,0.330,36.011,144.348,132.141
-0.202,-0.840,0.121,13.306,134.705,157.532
-0.191,-0.842,-0.022,17.151,107.544,188.110
-0.245,-0.737,0.002,39.978,66.101,223.572
-0.198,-0.614,-0.080,82.581,21.179,257.690
-0.132,-0.225,0.031,116.089,-34.485,292.358
0.025,0.340,0.475,126.343,-91.125,308.167
0.115,0.726,0.872,114.929,-126.587,290.955
0.216,0.818,0.800,108.215,-121.643,242.126
0.275,0.732,0.765,87.097,-112.061,181.580
0.215,0.387,0.879,61.523,-115.967,119.446
0.149,0.036,0.940,36.804,-113.342,71.899
0.121,-0.055,0.983,19.470,-106.934,51.208
0.119,-0.051,1.064,17.822,-101.807,42.236
0.120,-0.058,1.167,22.644,-91.736,32.104
0.117,-0.077,1.246,26.489,-73.669,20.630
0.079,-0.118,1.224,29.053,-51.697,7.568
0.004,-0.268,1.141,22.400,-31.677,-5.981
-0.019,-0.402,1.095,10.986,-18.738,-13.367
-0.008,-0.408,1.059,7.141,-12.146,-11.414
-0.006,-0.368,1.037,7.874,-8.545,-8.728
0.007,-0.351,1.012,9.399,-7.263,-8.667
0.017,-0.355,1.008,7.141,-7.080,-10.010
0.031,-0.364,1.024,4.211,-7.751,-11.841
0.029,-0.384,1.058,2.747,-7.996,-13.428
0.021,-0.440,1.041,5.493,-6.287,-15.015
0.030,-0.445,1.021,9.460,-5.310,-13.916
0.043,-0.426,1.044,11.353,-8.057,-11.902
0.014,-0.410,1.059,7.507,-8.972,-10.315
0.006,-0.408,1.080,4.822,-8.606,-9.766
0.005,-0.391,1.064,5.676,-6.226,-9.766
0.009,-0.394,1.033,6.409,-4.150,-9.399
-0.001,-0.439,1.020,6.409,-3.784,-10.681
-0.007,-0.483,1.003,4.822,-3.784,-10.071
0.017,-0.480,0.993,0.549,-3.113,-6.531
0.033,-0.427,0.997,0.122,-4.028,-2.808
0.036,-0.375,0.984,2.380,-4.395,-0.305
0.026,-0.369,0.968,3.052,-4.211,-0.305
0.031,-0.362,0.974,1.404,-4.395,-0.366
0.029,-0.342,0.982,1.404,-4.211,-0.244
0.026,-0.332,0.966,4.333,-3.235,-0.793
0.032,-0.322,0.940,7.019,-2.136,-1.648
0.041,-0.334,0.908,6.165,-1.953,-3.601
0.046,-0.361,0.903,3.235,-3.052,-5.798
0.037,-0.374,0.934,2.686,-5.005,-6.470
0.022,-0.403,0.957,3.479,-5.798,-6.470
0.028,-0.456,0.937,1.038,-4.211,-5.554
0.043,-0.463,0.964,-1.892,-3.723,-2.563
0.043,-0.433,0.993,0.366,-3.601,1.221
0.039,-0.401,0.954,3.723,-0.916,3.845
0.042,-0.377,0.922,5.371,-0.122,4.761
0.045,-0.344,0.904,6.226,-1.709,4.944
0.042,-0.333,0.919,6.775,-4.150,3.174
0.036,-0.346,0.944,6.409,-6.104,0.305
0.032,-0.370,0.955,5.554,-6.592,-1.526
0.025,-0.385,0.966,6.592,-6.531,-2.380
0.025,-0.388,0.962,8.667,-6.226,-2.197
0.030,-0.412,0.932,8.423,-5.249,-1.587
0.031,-0.464,0.926,6.226,-6.226,-1.526
0.024,-0.469,0.948,4.150,-8.545,0.122
0.016,-0.427,0.974,3.601,-10.193,2.991
0.003,-0.379,0.985,3.906,-10.681,4.517
-0.010,-0.364,0.999,3.906,-10.010,4.395
-0.021,-0.367,1.000,4.150,-7.874,3.418
-0.022,-0.377,0.975,5.737,-5.676,2.258
-0.021,-0.393,0.979,6.287,-4.883,1.160
-0.008,-0.393,0.965,7.568,-4.700,0.977
-0.001,-0.391,0.938,7.690,-4.211,0.916
-0.002,-0.383,0.940,7.385,-5.249,0.549
-0.003,-0.374,0.949,8.301,-6.287,0.427
-0.010,-0.404,0.946,7.385,-6.653,-0.427
-0.010,-0.452,0.940,3.784,-6.165,-0.671
-0.006,-0.459,0.942,2.991,-6.470,1.587
-0.011,-0.436,0.969,3.723,-7.507,4.456
-0.018,-0.426,0.985,3.906,-7.385,6.104
-0.021,-0.431,0.983,3.357,-5.798,7.263
-0.022,-0.426,0.977,3.052,-4.883,8.057
-0.022,-0.400,0.969,4.150,-4.822,8.850
-0.021,-0.378,0.958,5.432,-4.944,8.484
-0.022,-0.368,0.954,5.676,-5.310,7.141
-0.021,-0.375,0.949,5.493,-5.432,5.493
-0.015,-0.382,0.936,5.920,-5.920,4.395
-0.011,-0.417,0.943,5.188,-6.836,3.357
-0.007,-0.446,0.947,2.930,-7.812,3.174
-0.011,-0.465,0.936,1.587,-7.690,4.639
-0.007,-0.483,0.945,0.488,-8.301,6.531

-0.570,-1.545,0.973,-128.540,-141.541,89.172
-0.708,-1.332,1.118,-72.144,-153.687,151.123
-0.797,-1.123,1.100,2.991,-157.776,203.552
-0.878,-0.965,1.132,60.120,-163.269,243.164
-0.949,-0.775,1.362,93.384,-171.997,274.719
-0.945,-0.550,1.252,116.882,-166.870,293.945
-0.983,-0.545,1.112,141.785,-169.617,294.312
-1.021,-0.683,0.984,147.461,-180.786,286.499
-1.041,-0.789,0.953,141.724,-200.073,285.156
-0.964,-0.753,1.145,134.155,-225.830,288.879
-0.835,-0.408,1.446,131.226,-247.314,295.776
-0.735,-0.234,1.740,126.099,-248.230,280.762
-0.701,-0.293,1.766,105.408,-218.567,246.033
-0.672,-0.379,1.601,74.280,-170.227,216.003
-0.638,-0.412,1.460,34.607,-125.427,198.730
-0.632,-0.512,1.361,5.432,-93.567,181.885
-0.606,-0.676,1.332,-14.893,-72.510,161.255
-0.557,-0.734,1.315,-35.706,-53.345,147.461
-0.480,-0.667,1.356,-52.856,-36.377,138.550
-0.414,-0.621,1.354,-63.965,-19.348,128.296
-0.412,-0.634,1.283,-72.510,-0.610,115.906
-0.409,-0.632,1.144,-75.684,20.203,106.262
-0.399,-0.610,1.046,-79.163,34.607,98.999
-0.365,-0.503,1.017,-84.534,41.748,93.933
-0.313,-0.379,1.006,-89.172,47.974,86.731
-0.275,-0.317,1.012,-90.820,54.993,74.768
-0.265,-0.311,0.990,-93.201,66.101,59.570
-0.251,-0.265,0.961,-92.102,76.538,46.448
-0.228,-0.236,0.978,-91.553,84.595,35.095
-0.187,-0.221,1.001,-90.759,91.187,21.790
-0.153,-0.158,0.988,-85.571,99.792,8.301
-0.110,-0.086,0.960,-79.834,109.863,-6.226
-0.009,0.032,0.986,-71.655,116.882,-21.057
0.033,0.079,0.970,-66.772,122.864,-39.368
0.040,0.150,0.987,-70.923,129.822,-61.462
0.003,0.153,1.022,-73.730,132.996,-83.862
-0.020,0.079,0.996,-72.693,136.780,-108.643
-0.074,-0.036,0.934,-62.500,141.846,-129.944
-0.098,-0.126,0.816,-30.579,147.156,-146.973
-0.075,-0.218,0.647,28.137,145.691,-156.555
-0.045,-0.264,0.483,68.604,137.634,-162.354
-0.038,-0.427,0.438,84.045,123.901,-166.992
-0.019,-0.709,0.339,59.692,115.295,-168.701
0.014,-0.852,0.299,2.625,109.131,-156.860
0.047,-0.796,0.357,-31.128,90.332,-134.155
0.085,-0.749,0.503,-23.804,64.636,-115.845
0.067,-0.595,0.568,-8.484,47.424,-99.243
0.069,-0.445,0.654,-7.812,37.292,-85.693
0.036,-0.394,0.809,-7.263,28.076,-83.862
-0.003,-0.380,0.868,-5.188,27.527,-87.036
0.004,-0.331,0.850,0.732,31.433,-88.440
-0.000,-0.376,0.857,4.578,31.189,-94.421
-0.020,-0.581,0.846,-2.991,32.654,-104.187
0.001,-0.739,0.803,-28.076,38.696,-105.286
0.012,-0.787,0.851,-43.579,36.377,-94.788
0.028,-0.740,0.939,-43.396,29.602,-80.566
0.043,-0.598,1.003,-37.842,27.344,-66.650
0.020,-0.456,1.058,-34.119,26.794,-57.678
-0.028,-0.489,1.034,-32.166,30.579,-59.814
-0.064,-0.599,0.898,-26.428,37.231,-63.354
-0.060,-0.612,0.780,-14.160,35.645,-56.274
-0.045,-0.524,0.773,-0.610,23.621,-43.335
-0.023,-0.428,0.821,9.216,10.620,-35.461
0.000,-0.403,0.885,10.315,2.930,-34.912
-0.007,-0.466,0.928,6.653,-0.122,-37.964
-0.027,-0.585,0.915,3.967,-0.427,-40.710
-0.028,-0.655,0.905,1.343,-1.038,-38.086
-0.028,-0.649,0.928,2.380,-4.333,-29.785
-0.049,-0.648,0.964,5.676,-7.263,-20.752
-0.065,-0.659,0.954,6.592,-7.446,-12.634
-0.056,-0.614,0.917,9.094,-6.897,-3.906
-0.035,-0.515,0.904,13.794,-9.094,4.578
-0.025,-0.463,0.929,17.700,-12.085,7.568
-0.012,-0.416,0.916,18.127,-12.268,8.179
-0.010,-0.383,0.898,13.428,-11.536,7.263
-0.020,-0.414,0.919,10.315,-13.367,2.197
-0.025,-0.408,0.927,9.460,-14.465,-0.305
-0.033,-0.414,0.943,9.644,-14.160,-1.831
-0.041,-0.460,0.975,9.399,-13.367,-4.333
-0.047,-0.490,1.001,8.789,-11.597,-4.761
-0.041,-0.506,1.000,7.019,-8.240,-3.601
-0.019,-0.472,0.979,3.296,-4.211,-1.038
-0.031,-0.492,0.960,0.977,-1.709,-0.610
-0.032,-0.504,0.911,4.028,-0.305,-0.732
-0.027,-0.455,0.921,7.629,-1.465,1.526
-0.020,-0.430,0.919,9.399,-2.563,1.892
-0.008,-0.416,0.905,6.165,-1.831,0.427
-0.015,-0.438,0.924,1.953,-2.014,-2.014
-0.013,-0.450,0.910,1.953,-1.831,-3.479
-0.003,-0.444,0.897,3.723,-1.526,-2.930
-0.004,-0.478,0.911,4.333,-2.441,-2.991
0.000,-0.538,0.920,0.427,-2.625,-3.540
0.007,-0.546,0.951,-2.014,-2.747,-2.075
0.000,-0.533,0.951,0.793,-2.258,0.366
-0.005,-0.501,0.950,4.028,-1.648,2.625
-0.008,-0.474,0.934,5.920,-1.282,3.906
-0.020,-0.452,0.917,8.545,-0.916,3.723
-0.020,-0.427,0.946,9.766,-2.319,2.930
-0.013,-0.424,0.946,9.033,-2.319,0.916
-0.008,-0.433,0.918,5.615,-0.427,-1.221
-0.009,-0.465,0.884,7.507,0.000,-3.174
-0.005,-0.499,0.874,8.789,-1.770,-3.357
-0.001,-0.519,0.904,4.761,-3.479,-2.869
-0.006,-0.503,0.944,3.113,-4.639,-1.648
-0.015,-0.494,0.941,3.540,-4.333,-0.366
-0.026,-0.510,0.922,3.845,-3.235,0.366
-0.026,-0.526,0.919,4.089,-3.052,1.282
-0.027,-0.528,0.948,3.845,-3.357,2.625
-0.028,-0.514,0.950,4.089,-2.747,4.089
-0.022,-0.476,0.915,6.226,-1.404,5.554
-0.025,-0.450,0.901,9.033,-1.831,5.493
-0.031,-0.447,0.919,9.521,-3.235,4.211
-0.016,-0.441,0.918,6.897,-2.930,2.441
-0.022,-0.446,0.928,4.028,-2.136,0.549
-0.027,-0.476,0.909,3.723,-0.671,-1.282
-0.021,-0.463,0.880,6.042,-0.122,-0.977
-0.019,-0.465,0.893,7.507,-1.892,-0.977
-0.016,-0.497,0.907,6.226,-3.418,-2.014
-0.012,-0.510,0.907,3.174,-3.418,-2.075

-0.754,-1.526,0.889,-91.736,-177.063,87.891
-0.864,-1.417,1.108,-38.452,-199.402,144.531
-1.035,-1.379,1.232,52.856,-214.844,194.275
-1.109,-1.221,1.198,123.230,-223.328,245.361
-1.139,-1.002,1.450,178.955,-239.380,293.457
-1.051,-0.637,1.493,196.167,-233.032,325.073
-0.987,-0.427,1.388,195.679,-215.759,331.055
-0.959,-0.750,1.092,172.791,-201.050,305.664
-0.908,-0.811,1.017,143.860,-199.402,290.161
-0.850,-0.594,1.246,138.672,-222.839,291.199
-0.792,-0.435,1.507,134.888,-232.361,282.898
-0.736,-0.664,1.559,91.492,-210.937,256.042
-0.687,-0.740,1.442,19.653,-167.419,241.577
-0.654,-0.695,1.576,-25.879,-138.306,241.394
-0.663,-0.496,1.643,-41.138,-108.643,238.037
-0.679,-0.457,1.560,-37.048,-74.219,221.680
-0.685,-0.504,1.469,-39.429,-41.687,196.411
-0.666,-0.553,1.365,-50.781,-12.695,174.133
-0.610,-0.631,1.190,-70.862,15.076,152.771
-0.553,-0.624,1.060,-85.632,34.607,135.925
-0.527,-0.437,0.961,-91.125,42.786,122.986
-0.393,-0.437,1.052,-97.961,46.997,100.769
-0.323,-0.445,1.003,-98.267,54.504,74.341
-0.242,-0.343,0.929,-103.516,66.528,61.646
-0.186,-0.275,0.959,-104.858,68.604,47.363
-0.177,-0.225,1.015,-110.168,73.425,33.020
-0.136,-0.168,1.010,-116.516,83.984,17.944
-0.085,-0.064,1.020,-118.896,95.459,3.052
-0.033,0.124,1.136,-118.286,104.614,-13.794
-0.009,0.192,1.261,-124.817,120.117,-39.734
-0.058,0.193,1.304,-132.690,140.930,-71.838
-0.086,0.267,1.239,-135.864,163.513,-101.379
-0.104,0.274,1.220,-126.770,179.260,-133.545
-0.135,0.177,1.181,-81.726,189.270,-168.762
-0.173,0.059,1.046,-16.418,198.425,-198.975
-0.187,-0.172,0.838,26.062,208.130,-226.440
-0.238,-0.302,0.640,27.893,218.628,-242.493
-0.262,-0.462,0.421,24.597,218.140,-245.667
-0.162,-0.599,0.268,40.771,202.759,-241.638
-0.086,-0.580,0.044,38.940,187.317,-226.013
-0.011,-0.480,-0.075,31.250,163.330,-211.304
0.013,-0.352,-0.004,16.418,125.305,-202.515
0.021,-0.284,0.108,2.441,88.440,-199.402
0.005,-0.373,0.204,2.502,59.998,-203.857
0.000,-0.557,0.292,6.775,38.513,-206.909
-0.024,-0.620,0.329,10.437,22.034,-195.496
-0.059,-0.663,0.399,6.042,7.385,-177.368
-0.082,-0.790,0.606,-13.306,-6.470,-164.246
-0.096,-0.976,0.808,-38.391,-13.184,-151.245
-0.109,-1.102,0.841,-54.749,-7.568,-131.165
-0.119,-1.099,0.891,-59.387,-4.578,-102.783
-0.105,-1.011,1.005,-45.837,-10.864,-72.510
-0.104,-0.860,1.089,-23.804,-13.611,-45.044
-0.090,-0.726,1.023,-11.475,-6.287,-26.428
-0.099,-0.638,0.907,-10.437,1.465,-16.846
-0.117,-0.599,0.848,-5.798,0.793,-12.634
-0.115,-0.549,0.862,-0.122,-6.165,-9.277
-0.096,-0.475,0.913,-5.554,-11.780,-7.019
-0.104,-0.445,0.920,-8.240,-14.038,-8.606
-0.112,-0.451,0.923,-6.042,-16.113,-11.963
-0.115,-0.462,0.918,-1.465,-19.104,-13.855
-0.132,-0.500,0.941,0.000,-21.362,-14.771
-0.140,-0.585,0.991,-1.099,-21.851,-14.893
-0.140,-0.599,1.067,-3.113,-21.362,-11.353
-0.148,-0.616,1.123,-6.287,-17.822,-7.263
-0.159,-0.615,1.121,-7.996,-11.169,-4.822
-0.158,-0.558,1.076,-4.822,-5.188,0.000
-0.158,-0.498,1.018,-4.028,0.122,4.089
-0.157,-0.473,0.972,-8.423,4.639,4.944
-0.153,-0.455,0.949,-7.202,4.761,4.333
-0.129,-0.373,0.932,-1.282,2.930,4.944
-0.112,-0.317,0.930,-1.038,1.953,2.930
-0.105,-0.360,0.879,-3.296,3.601,-3.296
-0.086,-0.419,0.855,-3.784,3.540,-6.775
-0.067,-0.451,0.845,-6.653,1.587,-7.263
-0.068,-0.507,0.846,-6.165,-1.343,-8.057
-0.076,-0.530,0.892,-3.052,-5.249,-7.263
-0.088,-0.508,0.943,-6.409,-7.263,-4.822
