aX,aY,aZ,gX,gY,gZ
-1.234,-1.532,0.878,221.191,-341.858,-277.100
-1.324,-1.606,1.080,216.431,-294.067,-236.511
-1.387,-1.658,1.328,186.401,-237.732,-190.857
-1.407,-1.899,1.465,151.123,-172.791,-153.809
-1.370,-1.943,1.386,110.779,-91.919,-102.051
-1.241,-1.738,1.087,53.040,-9.705,-39.124
-1.002,-1.516,0.849,-5.249,48.706,10.681
-0.832,-1.370,0.630,-47.485,83.435,42.114
-0.732,-1.271,0.535,-70.923,96.436,61.890
-0.675,-1.160,0.592,-83.923,95.825,78.064
-0.660,-1.076,0.669,-93.628,96.558,90.576
-0.613,-1.187,0.812,-103.821,103.088,97.778
-0.706,-1.182,0.813,-107.422,118.103,106.628
-0.798,-1.094,0.820,-114.258,136.658,122.681
-0.840,-1.011,0.882,-118.408,152.649,140.625
-0.833,-0.920,0.859,-118.591,176.819,159.729
-0.770,-0.779,0.737,-116.577,207.092,175.232
-0.672,-0.684,0.607,-127.869,231.750,183.105
-0.563,-0.635,0.608,-176.758,248.718,182.312
-0.425,-0.585,0.453,-195.129,261.902,175.171
-0.314,-0.561,0.383,-188.782,259.766,163.391
-0.237,-0.460,0.451,-169.983,248.413,162.415
-0.174,-0.258,0.424,-143.982,242.798,166.931
-0.084,-0.045,0.219,-111.694,232.056,157.166
0.004,-0.015,0.129,-85.144,190.979,125.854
0.101,-0.054,0.454,-78.735,133.484,89.966
0.170,-0.136,0.673,-73.364,105.408,59.204
0.247,-0.181,0.658,-57.495,99.426,39.246
0.318,-0.229,0.520,-40.405,95.215,24.963
0.365,-0.288,0.455,-30.334,80.688,14.038
0.376,-0.339,0.488,-21.729,58.533,5.859
0.362,-0.366,0.549,-12.329,35.583,0.732
0.334,-0.377,0.585,-2.563,16.785,-3.296
0.291,-0.379,0.621,5.188,1.038,-6.653
0.256,-0.391,0.671,10.620,-12.146,-10.864
0.225,-0.426,0.716,13.672,-21.545,-15.991
0.191,-0.481,0.775,16.968,-27.405,-20.142
0.171,-0.542,0.844,19.775,-30.151,-21.545
0.156,-0.587,0.845,23.193,-28.076,-20.142
0.143,-0.595,0.826,24.963,-25.452,-17.151
0.134,-0.582,0.851,23.437,-26.184,-14.038
0.121,-0.598,0.903,21.362,-28.015,-13.245
0.109,-0.654,0.926,18.250,-27.039,-14.343
0.097,-0.715,0.938,13.611,-24.292,-14.221
0.094,-0.732,0.954,10.559,-21.545,-9.399
0.099,-0.696,0.933,8.484,-16.846,-1.709
0.105,-0.629,0.892,7.202,-11.292,5.798
0.114,-0.558,0.888,5.859,-8.423,10.193
0.120,-0.537,0.871,5.432,-7.080,10.315
0.109,-0.544,0.846,7.935,-6.714,7.629
0.101,-0.541,0.861,8.484,-8.484,5.249
0.098,-0.547,0.884,8.179,-10.864,2.563
0.095,-0.568,0.887,8.667,-11.902,-0.549
0.107,-0.542,0.890,16.907,-11.536,-1.892
0.108,-0.614,0.863,39.795,-12.390,-3.845
0.119,-0.598,0.878,19.104,-11.536,-2.258
0.130,-0.571,0.872,13.550,-7.385,3.113
0.130,-0.568,0.844,13.977,-5.310,4.089
0.125,-0.568,0.832,12.024,-5.188,2.930
0.117,-0.581,0.846,11.414,-8.362,1.038
0.108,-0.583,0.864,13.489,-10.376,0.061
0.102,-0.573,0.864,14.160,-9.949,0.427
0.102,-0.576,0.872,13.367,-9.399,-0.427
0.094,-0.604,0.867,14.832,-8.911,-2.930
0.092,-0.627,0.862,15.869,-9.033,-4.333
0.092,-0.626,0.862,14.282,-9.155,-3.784
0.090,-0.619,0.859,13.977,-9.277,-3.296
0.089,-0.605,0.860,13.245,-9.216,-3.357
0.086,-0.596,0.848,16.113,-9.766,-4.517
0.084,-0.599,0.850,19.043,-11.353,-7.141
0.082,-0.603,0.843,21.545,-12.634,-10.193
0.080,-0.607,0.839,23.315,-13.550,-12.695
0.074,-0.612,0.839,23.865,-14.465,-14.160
0.073,-0.613,0.842,24.292,-15.076,-15.625
0.077,-0.621,0.836,24.841,-15.320,-16.724
0.077,-0.632,0.818,25.818,-14.648,-17.029
0.078,-0.634,0.815,24.780,-13.916,-15.015
0.078,-0.632,0.820,20.447,-12.512,-11.719
0.074,-0.625,0.818,15.198,-10.071,-8.301
0.071,-0.626,0.809,10.559,-7.935,-6.287
0.060,-0.628,0.802,7.751,-7.141,-5.249
0.057,-0.630,0.811,5.066,-7.568,-4.517
0.054,-0.637,0.820,5.066,-8.057,-4.578
0.052,-0.646,0.818,6.104,-8.057,-4.944
0.054,-0.650,0.827,4.700,-7.751,-4.333
0.052,-0.658,0.831,3.052,-6.775,-3.235
0.048,-0.666,0.828,2.075,-5.432,-1.770
0.046,-0.671,0.820,0.610,-4.333,0.183
0.041,-0.663,0.820,-1.282,-4.089,2.808
0.032,-0.635,0.826,-2.258,-3.906,5.615
0.028,-0.607,0.833,-2.319,-3.540,6.226
0.024,-0.605,0.825,0.977,-3.113,3.723
0.021,-0.618,0.824,2.808,-3.235,0.183
0.023,-0.641,0.835,-0.305,-2.991,-2.563
0.028,-0.648,0.857,-2.136,-1.282,-4.395
0.019,-0.663,0.838,0.000,1.770,-6.042
0.004,-0.686,0.836,4.272,2.563,-6.958
0.007,-0.665,0.809,15.686,-0.061,-4.089
0.018,-0.628,0.805,17.944,-3.357,-1.648
0.014,-0.631,0.804,18.616,-4.761,-3.906
0.012,-0.646,0.801,15.930,-4.944,-5.859
0.024,-0.652,0.801,7.996,-4.028,-5.066
0.031,-0.654,0.797,1.526,-2.197,-2.747
0.030,-0.642,0.795,-0.732,-0.366,-0.427
0.034,-0.629,0.792,-1.343,0.244,1.038
0.030,-0.643,0.809,-3.174,0.305,0.427
0.023,-0.670,0.815,-4.150,1.526,-0.305
0.021,-0.667,0.813,-6.348,2.930,1.526
0.025,-0.644,0.809,-9.583,4.028,3.662
0.028,-0.645,0.815,-10.010,3.662,3.235
0.037,-0.646,0.808,-8.362,2.502,2.319
0.042,-0.662,0.820,-9.521,1.709,2.380
0.039,-0.670,0.828,-8.545,1.343,3.784
0.040,-0.650,0.817,-5.371,0.977,6.531
0.046,-0.627,0.818,-4.089,-0.244,8.301
0.051,-0.578,0.820,-2.441,-1.770,8.484
0.041,-0.575,0.813,3.235,-3.540,4.211
0.037,-0.612,0.801,8.850,-4.639,-1.770
0.025,-0.637,0.796,12.573,-5.432,-4.089

-0.899,-1.327,0.818,195.190,-227.051,-243.896
-0.940,-1.479,0.985,183.044,-202.209,-219.421
-0.933,-1.605,1.081,163.025,-165.100,-184.509
-0.880,-1.661,1.109,134.338,-118.286,-141.174
-0.817,-1.694,1.061,100.281,-68.726,-94.177
-0.758,-1.665,0.945,63.782,-23.315,-45.593
-0.685,-1.555,0.834,26.367,12.573,1.587
-0.615,-1.456,0.755,-12.024,39.124,40.283
-0.598,-1.417,0.736,-46.021,54.321,67.139
-0.622,-1.347,0.759,-64.636,59.937,89.355
-0.646,-1.223,0.787,-80.994,65.063,108.582
-0.699,-1.164,0.852,-110.229,74.097,117.615
-0.729,-1.165,0.872,-129.150,86.853,121.094
-0.745,-1.176,0.854,-128.540,106.262,127.441
-0.742,-1.087,0.799,-130.188,131.165,143.555
-0.717,-0.929,0.676,-130.554,156.311,163.025
-0.659,-0.760,0.528,-130.676,175.659,174.561
-0.583,-0.617,0.467,-135.254,182.495,175.659
-0.486,-0.525,0.455,-134.094,179.993,167.847
-0.372,-0.474,0.413,-124.634,175.232,156.006
-0.248,-0.411,0.387,-117.920,167.847,142.944
-0.144,-0.367,0.426,-116.516,153.992,127.197
-0.073,-0.359,0.488,-111.755,137.817,109.802
-0.008,-0.349,0.519,-101.685,124.023,94.666
0.062,-0.338,0.553,-86.060,109.314,80.811
0.109,-0.361,0.581,-70.129,91.431,65.063
0.121,-0.443,0.634,-59.570,74.829,47.729
0.103,-0.518,0.716,-50.232,60.181,36.499
0.089,-0.534,0.745,-38.269,50.476,33.203
0.094,-0.520,0.739,-28.442,45.410,32.471
0.099,-0.520,0.714,-21.301,42.053,29.785
0.100,-0.508,0.721,-16.785,36.377,25.635
0.117,-0.485,0.720,-12.878,28.809,20.935
0.131,-0.488,0.719,-7.690,20.508,13.550
0.135,-0.505,0.733,-1.526,11.475,5.127
0.139,-0.523,0.727,10.193,3.113,-1.099
0.133,-0.527,0.740,17.212,-3.906,-4.211
0.110,-0.550,0.774,19.531,-9.033,-6.042
0.081,-0.585,0.813,22.217,-11.841,-7.019
0.066,-0.610,0.819,25.879,-11.597,-6.531
0.067,-0.638,0.825,25.024,-9.705,-5.920
0.072,-0.672,0.814,22.888,-8.484,-5.493
0.068,-0.691,0.809,22.766,-9.460,-4.944
0.063,-0.676,0.818,23.926,-11.902,-2.747
0.061,-0.659,0.818,25.452,-12.939,-0.366
0.046,-0.644,0.812,24.292,-12.634,0.977
0.035,-0.641,0.827,22.034,-12.512,1.099
0.024,-0.638,0.816,23.254,-11.841,0.061
0.016,-0.647,0.812,23.010,-11.230,-1.465
0.006,-0.669,0.827,18.066,-10.925,-2.991
0.001,-0.691,0.835,13.733,-9.766,-3.662
0.010,-0.699,0.824,12.939,-8.362,-3.174
0.016,-0.693,0.815,11.902,-7.629,-2.319
0.027,-0.694,0.801,11.658,-7.751,-1.709
0.030,-0.697,0.812,9.583,-7.996,-0.549
0.028,-0.698,0.829,8.423,-7.751,1.343
0.029,-0.696,0.812,11.169,-5.859,3.601
0.022,-0.663,0.768,11.719,-3.479,7.019
0.019,-0.629,0.753,8.301,-2.747,9.277
0.012,-0.611,0.766,7.263,-4.395,9.094
0.006,-0.615,0.775,10.071,-5.615,6.592
-0.000,-0.623,0.776,11.780,-6.287,3.845
0.005,-0.643,0.776,9.460,-6.104,1.099
0.010,-0.674,0.781,7.324,-6.226,-1.282
0.006,-0.684,0.781,7.874,-5.859,-0.732
0.011,-0.664,0.778,7.690,-4.944,2.075
0.027,-0.658,0.774,5.432,-4.333,3.174
0.037,-0.690,0.770,3.357,-4.150,2.014
0.032,-0.699,0.754,4.211,-4.517,2.563
0.021,-0.672,0.765,5.371,-5.920,5.310
0.020,-0.645,0.776,5.920,-7.080,7.141
0.017,-0.633,0.764,6.470,-6.470,6.775
0.016,-0.638,0.761,6.348,-5.920,5.127
0.016,-0.645,0.759,6.287,-6.042,4.211
0.012,-0.647,0.767,7.263,-5.981,4.028
0.001,-0.652,0.786,6.836,-6.165,3.235
0.003,-0.682,0.782,5.920,-5.554,1.282
0.006,-0.710,0.788,4.150,-4.639,0.183
0.008,-0.719,0.791,3.967,-4.456,1.038
0.010,-0.701,0.781,6.287,-3.967,3.296
0.019,-0.680,0.778,5.371,-3.906,4.944
0.019,-0.683,0.771,2.563,-3.906,4.150
0.017,-0.695,0.771,2.136,-4.333,2.686
0.010,-0.679,0.773,3.174,-4.761,3.479
0.010,-0.654,0.770,3.967,-4.883,4.822
0.013,-0.640,0.763,4.089,-4.395,4.761
0.021,-0.646,0.761,4.028,-4.333,3.784
0.020,-0.665,0.766,3.540,-4.517,2.441
0.012,-0.685,0.771,3.479,-4.944,1.587
0.003,-0.685,0.774,4.395,-5.249,2.380
-0.000,-0.679,0.786,4.272,-5.005,3.601
0.002,-0.692,0.782,3.479,-4.272,3.174
0.000,-0.704,0.771,4.822,-3.723,2.258
-0.002,-0.694,0.779,4.883,-4.028,2.808
-0.003,-0.672,0.776,5.493,-4.211,3.540
0.000,-0.659,0.780,5.188,-3.784,3.357
0.004,-0.670,0.778,4.700,-3.235,1.953
0.004,-0.688,0.767,6.165,-3.174,0.183
0.006,-0.705,0.778,6.226,-3.906,-0.549
0.003,-0.710,0.779,6.409,-4.333,-0.549
-0.000,-0.705,0.782,6.531,-4.395,0.061
-0.000,-0.706,0.789,5.005,-4.395,0.366
0.000,-0.709,0.795,3.235,-3.723,0.671
0.001,-0.702,0.783,2.808,-2.380,1.648
0.003,-0.691,0.771,3.235,-1.404,2.075
0.008,-0.695,0.774,1.648,-2.197,0.793
0.010,-0.710,0.773,2.563,-3.235,-1.038
0.004,-0.714,0.783,3.235,-3.967,-0.854
0.006,-0.697,0.783,2.991,-3.723,0.488
0.010,-0.678,0.774,2.258,-2.808,1.526
0.013,-0.674,0.759,3.113,-2.441,1.099
0.011,-0.682,0.764,2.808,-3.113,0.244
0.006,-0.690,0.771,3.113,-3.845,-0.427
0.002,-0.697,0.781,4.089,-4.150,-0.549
-0.004,-0.698,0.780,4.150,-3.906,-0.244
-0.008,-0.704,0.783,4.150,-3.418,-0.366
-0.004,-0.710,0.793,3.723,-2.869,-0.244
0.001,-0.705,0.782,3.113,-1.099,0.488
0.003,-0.688,0.767,2.869,0.427,1.953

-0.536,-1.399,0.968,-99.060,57.312,43.701
-0.651,-1.528,0.994,-111.694,75.867,51.331
-0.774,-1.581,1.010,-124.268,104.309,72.266
-0.796,-1.729,1.127,-155.640,140.442,106.201
-0.776,-1.587,1.068,-184.753,187.317,159.790
-0.706,-1.199,0.822,-186.035,234.863,218.689
-0.571,-0.781,0.596,-166.565,259.094,254.700
-0.395,-0.406,0.447,-139.893,257.385,262.817
-0.190,-0.180,0.359,-112.183,237.366,242.676
-0.028,-0.083,0.345,-92.224,209.473,205.078
0.091,-0.085,0.350,-70.496,181.030,163.269
0.182,-0.098,0.328,-51.880,153.931,126.404
0.254,-0.132,0.345,-35.217,125.000,96.069
0.286,-0.137,0.365,-22.583,96.069,71.899
0.304,-0.251,0.431,-21.057,68.237,48.401
0.308,-0.396,0.526,-23.254,46.082,31.433
0.306,-0.428,0.583,-18.982,33.752,27.283
0.302,-0.398,0.583,-12.939,28.076,28.442
0.300,-0.389,0.562,-9.460,23.865,26.367
0.288,-0.395,0.554,-7.385,18.311,22.522
0.284,-0.392,0.560,-3.296,10.742,18.188
0.277,-0.379,0.573,2.502,2.441,12.573
0.263,-0.403,0.601,7.202,-5.798,4.150
0.247,-0.456,0.631,10.986,-13.977,-5.310
0.240,-0.505,0.668,15.076,-21.301,-12.939
0.231,-0.551,0.673,26.062,-27.222,-18.921
0.210,-0.633,0.695,32.715,-30.701,-23.315
0.201,-0.659,0.749,23.621,-32.471,-20.813
0.186,-0.667,0.759,23.193,-31.860,-17.212
0.169,-0.667,0.736,27.100,-29.663,-14.832
0.154,-0.659,0.722,28.625,-28.442,-12.451
0.140,-0.653,0.723,26.917,-28.564,-10.498
0.127,-0.648,0.725,26.001,-28.198,-9.521
0.119,-0.645,0.724,27.954,-27.466,-9.216
0.119,-0.625,0.729,26.001,-25.513,-7.324
0.121,-0.616,0.732,22.339,-22.644,-6.287
0.127,-0.643,0.738,18.005,-20.386,-6.897
0.127,-0.681,0.732,16.907,-18.188,-7.874
0.125,-0.695,0.725,17.151,-16.785,-6.897
0.123,-0.691,0.732,18.311,-16.602,-5.310
0.117,-0.693,0.745,17.090,-16.357,-4.456
0.112,-0.698,0.740,16.846,-15.442,-4.517
0.106,-0.701,0.742,17.029,-14.587,-4.395
0.098,-0.694,0.754,14.893,-13.550,-3.113
0.099,-0.693,0.747,14.954,-11.597,-2.075
0.108,-0.686,0.746,12.573,-9.460,-1.404
0.119,-0.685,0.746,9.033,-7.568,-0.671
0.120,-0.697,0.736,8.972,-5.981,-0.610
0.114,-0.720,0.736,8.606,-5.676,-0.793
0.108,-0.733,0.746,8.179,-5.920,-0.244
0.109,-0.719,0.754,6.348,-5.798,1.587
0.115,-0.698,0.754,3.967,-4.700,3.113
0.119,-0.677,0.745,2.197,-3.723,3.784
0.125,-0.668,0.742,1.282,-3.479,3.113
0.131,-0.671,0.745,2.502,-3.601,1.648
0.137,-0.671,0.750,4.028,-3.906,0.305
0.138,-0.675,0.746,6.165,-4.089,-0.916
0.137,-0.680,0.739,7.141,-4.089,-1.953
0.137,-0.693,0.744,6.409,-4.456,-2.930
0.137,-0.706,0.750,6.165,-4.944,-3.784
0.141,-0.711,0.754,6.409,-5.249,-3.723
0.140,-0.719,0.746,6.958,-5.066,-3.357
0.140,-0.726,0.745,7.507,-5.127,-2.686
0.140,-0.720,0.749,7.385,-5.676,-1.160
0.139,-0.720,0.755,6.042,-5.859,0.000
0.138,-0.722,0.756,6.836,-5.859,-0.061
0.132,-0.717,0.749,8.850,-6.104,0.366
0.130,-0.720,0.750,8.362,-6.653,0.122
0.130,-0.724,0.753,5.859,-7.019,-0.183
0.128,-0.723,0.752,5.981,-7.080,0.305
0.124,-0.710,0.755,6.714,-6.836,1.221
0.121,-0.707,0.754,7.019,-6.470,1.709
0.123,-0.725,0.751,5.188,-5.920,0.793
0.123,-0.756,0.750,3.784,-5.737,-0.244
0.121,-0.754,0.754,4.272,-6.470,0.793
0.118,-0.724,0.754,4.639,-6.836,3.784
0.119,-0.703,0.756,3.662,-6.287,4.944
0.123,-0.706,0.744,3.174,-5.554,4.150
0.119,-0.703,0.733,5.127,-5.615,3.296
0.115,-0.700,0.740,6.897,-6.958,3.113
0.111,-0.700,0.746,7.935,-7.935,2.869
0.109,-0.710,0.751,7.935,-8.118,2.197
0.105,-0.725,0.758,7.141,-7.751,0.854
0.103,-0.734,0.757,7.446,-7.507,-0.183
0.099,-0.741,0.760,8.118,-6.958,-0.488
0.093,-0.744,0.769,7.507,-6.409,-0.244
0.091,-0.742,0.768,6.592,-5.127,0.122
0.094,-0.739,0.763,5.615,-4.150,0.244
0.097,-0.733,0.759,4.456,-3.479,0.305
0.102,-0.728,0.751,4.150,-2.625,-0.305
0.104,-0.727,0.750,4.456,-2.380,-0.977
0.109,-0.722,0.751,4.883,-2.136,-1.099
0.112,-0.725,0.751,5.127,-1.587,-1.099
0.112,-0.726,0.740,5.615,-0.793,-1.465
0.113,-0.733,0.738,3.845,-0.916,-2.319
0.112,-0.754,0.753,3.357,-1.831,-3.418
0.109,-0.754,0.753,4.456,-2.136,-2.991
0.106,-0.740,0.745,4.272,-1.221,-1.526
0.111,-0.733,0.740,3.357,-0.671,-0.793
0.110,-0.723,0.725,3.052,-0.549,-0.427
0.110,-0.716,0.737,3.784,-1.343,-0.488
0.118,-0.700,0.735,3.479,-1.648,-0.305
0.119,-0.695,0.724,4.211,-0.793,-0.488
0.117,-0.699,0.715,4.944,-1.038,-1.221
0.115,-0.708,0.719,6.348,-1.892,-1.892
0.114,-0.718,0.721,5.432,-2.747,-2.380
0.110,-0.729,0.715,6.042,-3.296,-2.502
0.106,-0.729,0.715,5.493,-3.662,-2.197
0.106,-0.727,0.725,4.578,-4.150,-1.587
0.109,-0.729,0.728,3.479,-4.211,-0.854
0.108,-0.720,0.722,2.563,-3.723,0.427
0.107,-0.704,0.714,2.563,-3.418,1.770
0.100,-0.698,0.717,3.357,-3.784,1.648
0.097,-0.701,0.719,4.150,-4.272,0.183
0.096,-0.707,0.727,5.005,-4.517,-1.709
0.093,-0.724,0.738,5.371,-4.578,-2.869
0.091,-0.739,0.730,6.165,-4.028,-3.662
0.088,-0.741,0.734,6.287,-3.723,-3.174
0.093,-0.733,0.742,4.700,-3.174,-2.502

-0.597,-1.500,0.626,191.040,-118.774,-163.879
-0.578,-1.438,0.555,169.678,-88.745,-131.775
-0.563,-1.403,0.500,143.738,-67.810,-110.229
-0.550,-1.382,0.508,122.925,-54.993,-94.238
-0.535,-1.382,0.536,106.567,-46.204,-83.008
-0.531,-1.455,0.575,88.562,-38.635,-75.745
-0.544,-1.573,0.594,66.284,-29.785,-66.895
-0.537,-1.660,0.585,42.786,-17.822,-53.833
-0.505,-1.695,0.578,24.048,-7.874,-36.072
-0.474,-1.695,0.576,0.305,1.648,-16.296
-0.414,-1.618,0.564,-26.489,13.184,6.653
-0.408,-1.545,0.588,-49.988,23.254,26.672
-0.457,-1.528,0.656,-65.979,29.053,38.818
-0.486,-1.479,0.700,-74.402,37.354,49.438
-0.493,-1.394,0.650,-71.411,52.856,62.866
-0.473,-1.310,0.550,-65.063,71.594,81.116
-0.446,-1.197,0.413,-63.965,87.036,102.112
-0.438,-1.089,0.336,-82.703,95.154,115.295
-0.459,-1.080,0.391,-107.666,95.093,117.432
-0.441,-1.035,0.522,-126.648,94.543,125.061
-0.379,-0.875,0.585,-129.028,102.783,143.188
-0.321,-0.625,0.529,-119.141,119.019,158.997
-0.245,-0.440,0.346,-100.098,132.874,156.250
-0.159,-0.366,0.253,-86.182,129.089,134.888
-0.085,-0.372,0.268,-89.233,112.915,105.774
-0.033,-0.444,0.351,-85.632,93.445,76.782
0.020,-0.496,0.426,-73.486,77.759,56.946
0.087,-0.466,0.449,-62.988,69.580,49.011
0.152,-0.443,0.455,-57.922,64.819,42.297
0.198,-0.493,0.427,-51.208,59.570,29.236
0.221,-0.542,0.413,-39.734,50.293,17.029
0.229,-0.572,0.437,-31.616,37.048,8.545
0.227,-0.591,0.460,-23.193,23.621,1.404
0.213,-0.607,0.492,-15.198,11.658,-4.883
0.189,-0.630,0.522,-10.681,1.770,-10.254
0.148,-0.699,0.563,-3.235,-5.737,-17.334
0.104,-0.797,0.602,5.493,-11.292,-23.071
0.068,-0.861,0.637,9.155,-13.977,-23.193
0.057,-0.872,0.655,9.155,-13.367,-18.066
0.052,-0.880,0.656,6.470,-11.047,-13.367
0.048,-0.900,0.645,3.845,-9.155,-10.742
0.047,-0.897,0.643,3.418,-9.033,-7.019
0.051,-0.847,0.634,5.615,-8.972,-1.526
0.056,-0.784,0.631,6.409,-8.850,2.869
0.058,-0.761,0.617,6.470,-8.850,3.113
0.051,-0.759,0.599,8.423,-9.644,0.732
0.042,-0.749,0.603,11.841,-12.268,-1.160
0.041,-0.755,0.616,13.184,-14.465,-3.113
0.035,-0.771,0.616,11.169,-14.709,-5.005
0.031,-0.795,0.625,9.155,-14.526,-6.104
0.025,-0.826,0.649,7.446,-14.893,-6.226
0.016,-0.868,0.652,6.897,-13.855,-5.493
0.002,-0.868,0.643,7.019,-11.536,-1.648
-0.001,-0.826,0.645,4.822,-9.460,4.089
0.006,-0.780,0.637,3.967,-7.324,7.751
0.018,-0.761,0.618,3.723,-5.859,7.629
0.019,-0.774,0.608,2.625,-6.226,4.395
0.017,-0.799,0.624,3.174,-8.484,1.038
0.010,-0.803,0.644,4.089,-9.949,0.061
0.003,-0.802,0.657,4.028,-9.460,0.366
-0.005,-0.810,0.659,4.639,-7.507,-0.122
-0.014,-0.832,0.661,5.066,-5.859,-0.793
-0.010,-0.848,0.656,4.639,-4.395,-0.671
0.001,-0.851,0.648,3.906,-2.991,0.427
0.010,-0.832,0.639,2.869,-1.465,2.747
0.022,-0.813,0.636,0.977,-0.977,3.784
0.031,-0.812,0.636,1.160,-1.343,3.296
0.034,-0.813,0.629,1.892,-1.465,3.052
0.033,-0.813,0.631,1.831,-1.709,3.540
0.028,-0.803,0.634,2.441,-2.014,4.456
0.024,-0.795,0.639,3.479,-1.953,4.944
0.022,-0.789,0.634,4.578,-1.526,4.639
0.020,-0.791,0.638,3.601,-1.099,3.845
0.026,-0.798,0.638,2.502,-0.671,3.052
0.036,-0.815,0.628,3.418,0.000,2.625
0.043,-0.818,0.630,3.235,0.000,3.601
0.048,-0.806,0.625,3.296,-0.122,4.761
0.050,-0.800,0.623,3.784,-1.160,4.700
0.050,-0.819,0.635,2.747,-2.136,3.784
0.048,-0.852,0.632,2.625,-2.319,3.418
0.050,-0.851,0.634,3.906,-1.953,5.554
0.053,-0.826,0.638,3.052,-2.136,9.033
0.055,-0.813,0.639,2.563,-2.136,10.193
0.044,-0.822,0.633,4.944,-2.686,9.399
0.032,-0.829,0.636,6.836,-3.784,8.484
0.021,-0.838,0.653,6.592,-4.517,7.507
0.013,-0.838,0.667,5.127,-4.639,7.019
0.011,-0.834,0.663,2.930,-3.784,7.080
0.013,-0.840,0.647,1.099,-2.380,6.348
0.019,-0.853,0.638,-1.770,-1.770,5.310
0.024,-0.861,0.642,-4.517,-2.319,5.432
0.023,-0.863,0.652,-5.432,-2.136,7.080
0.028,-0.844,0.660,-7.141,-0.977,10.193
0.035,-0.808,0.647,-8.972,1.526,13.733
0.042,-0.788,0.644,-11.353,3.418,15.869
0.042,-0.778,0.646,-14.709,4.333,16.724
0.041,-0.783,0.649,-19.470,5.371,17.395
0.046,-0.788,0.659,-25.024,7.324,18.738
0.053,-0.790,0.659,-26.428,8.667,19.348
0.068,-0.810,0.643,-25.757,9.277,18.738
0.066,-0.847,0.650,-33.508,8.728,17.883
0.058,-0.861,0.713,-51.331,7.996,19.958
0.058,-0.863,0.754,-73.059,11.169,25.269
0.066,-0.803,0.719,-89.722,19.531,31.250
0.076,-0.762,0.702,-95.032,23.254,32.715
0.076,-0.732,0.732,-99.121,21.545,29.541
0.086,-0.712,0.737,-96.191,19.592,24.841
0.094,-0.698,0.750,-86.609,18.005,19.531
0.092,-0.675,0.711,-74.036,16.907,15.747
0.093,-0.655,0.708,-65.918,14.526,12.207
0.101,-0.639,0.738,-60.730,11.047,8.423
0.104,-0.643,0.720,-53.711,10.498,4.456
0.121,-0.658,0.721,-45.288,8.667,1.343
0.131,-0.674,0.715,-41.809,6.348,0.916
0.128,-0.695,0.730,-44.189,4.211,1.648
0.120,-0.700,0.762,-41.138,1.648,2.930
0.114,-0.665,0.765,-32.898,0.610,6.165
0.114,-0.647,0.773,-24.719,-0.122,8.423
0.103,-0.640,0.788,-18.494,0.122,8.911

-1.035,-1.124,1.815,225.220,-223.389,-57.007
-1.433,-1.412,2.378,187.805,-173.950,-28.137
-0.498,-0.724,2.415,181.030,-122.803,11.536
-0.163,-1.182,2.024,131.226,-12.207,-33.081
-0.412,-1.798,1.739,57.129,40.039,-64.331
-0.290,-1.332,1.787,17.517,44.800,-30.396
-0.150,-0.955,1.744,-4.761,43.640,-3.113
-0.308,-0.956,1.560,-29.297,60.242,-2.808
-0.380,-0.866,1.575,-32.532,61.157,5.188
-0.324,-0.733,1.623,-42.053,65.979,12.085
-0.309,-0.764,1.512,-57.922,87.097,7.263
-0.276,-0.785,1.424,-70.007,106.567,7.507
-0.208,-0.734,1.331,-77.148,121.460,14.771
-0.137,-0.694,1.204,-83.496,133.545,21.851
-0.085,-0.636,1.092,-86.914,139.771,28.748
-0.053,-0.533,0.984,-86.304,139.404,35.828
-0.038,-0.436,0.839,-82.397,135.559,39.612
-0.020,-0.322,0.750,-77.393,125.427,39.856
0.003,-0.258,0.728,-72.876,110.779,35.889
0.007,-0.261,0.785,-67.810,94.788,28.137
0.015,-0.308,0.860,-62.927,82.458,20.691
0.029,-0.360,0.906,-61.096,74.890,16.296
0.042,-0.376,0.948,-59.753,69.092,14.709
0.054,-0.347,0.959,-56.030,64.270,15.930
0.066,-0.321,0.941,-51.819,60.303,16.479
0.070,-0.316,0.935,-47.974,55.481,15.564
0.069,-0.308,0.916,-44.250,51.880,14.709
0.077,-0.283,0.897,-41.199,47.913,14.099
0.085,-0.276,0.913,-38.452,43.335,12.329
0.086,-0.268,0.923,-35.278,39.063,10.193
0.086,-0.271,0.927,-32.227,36.377,7.751
0.096,-0.275,0.932,-29.541,34.607,6.165
0.111,-0.272,0.925,-28.259,34.424,5.371
0.133,-0.268,0.936,-29.114,34.363,4.944
0.144,-0.283,0.934,-29.846,33.264,3.479
0.141,-0.291,0.950,-30.396,31.616,2.747
0.140,-0.295,0.964,-29.724,30.884,2.869
0.140,-0.290,0.940,-27.832,32.410,3.906
0.143,-0.271,0.915,-25.452,33.325,5.066
0.157,-0.260,0.892,-23.193,33.081,5.920
0.169,-0.256,0.872,-22.278,31.921,5.737
0.186,-0.235,0.873,-20.935,28.503,6.348
0.201,-0.219,0.859,-19.043,25.391,5.859
0.204,-0.218,0.875,-17.395,21.545,4.883
0.206,-0.205,0.885,-14.954,18.494,4.395
0.212,-0.198,0.897,-11.169,16.968,3.845
0.225,-0.202,0.888,-8.972,16.418,3.113
0.236,-0.208,0.854,-7.935,15.808,2.625
0.235,-0.189,0.845,-7.568,13.428,3.174
0.237,-0.175,0.853,-6.470,9.766,2.563
0.240,-0.182,0.869,-4.944,6.714,1.526
0.238,-0.213,0.884,-4.639,4.028,0.061
0.232,-0.221,0.929,-5.432,1.770,-0.122
0.216,-0.230,0.943,-5.615,1.709,0.488
0.207,-0.236,0.950,-5.493,3.418,1.404
0.208,-0.228,0.940,-5.127,4.883,2.808
0.203,-0.213,0.930,-5.737,5.493,3.540
0.208,-0.197,0.925,-5.798,5.005,3.418
0.211,-0.205,0.926,-5.615,4.028,2.502
0.205,-0.200,0.926,-4.517,2.808,2.319
0.197,-0.191,0.931,-2.747,1.526,2.258
0.191,-0.182,0.947,-0.549,0.122,1.770
0.191,-0.184,0.955,1.404,-0.305,1.038
0.194,-0.198,0.973,2.563,0.000,-0.183
0.205,-0.214,0.981,2.930,0.305,-1.221
0.218,-0.223,0.980,2.625,0.305,-1.160
0.226,-0.228,0.970,2.686,0.305,-0.305
0.222,-0.217,0.966,2.991,-0.183,0.916
0.216,-0.204,0.957,2.747,-0.610,1.831
0.210,-0.206,0.954,2.747,-1.160,1.892
0.206,-0.208,0.962,3.296,-2.197,1.831
0.200,-0.208,0.961,3.235,-2.686,1.709
0.200,-0.201,0.974,2.441,-3.296,1.526
0.198,-0.198,0.975,2.380,-3.723,0.916
0.197,-0.207,0.971,2.747,-3.296,0.366
0.196,-0.218,0.965,3.235,-2.869,0.427
0.194,-0.221,0.974,3.418,-2.747,0.610
0.201,-0.213,0.965,3.479,-2.808,1.038
0.204,-0.218,0.959,3.418,-3.235,0.916
0.205,-0.216,0.967,3.357,-4.028,0.732
0.208,-0.215,0.974,3.296,-4.578,0.793
0.206,-0.230,0.984,3.113,-5.310,0.244
0.198,-0.226,1.000,3.296,-5.920,0.244
0.191,-0.233,1.006,3.784,-6.042,0.671
0.183,-0.240,1.011,4.028,-5.554,0.488
0.174,-0.241,1.017,4.028,-5.005,0.366
0.173,-0.238,1.013,3.784,-4.272,0.488
0.179,-0.248,1.012,3.540,-3.967,-0.061
0.181,-0.244,1.005,3.296,-3.784,0.122
0.181,-0.226,1.000,3.235,-3.418,0.671
0.185,-0.221,0.994,2.991,-3.113,0.427
0.187,-0.229,1.000,2.319,-3.113,-0.427
0.184,-0.240,1.002,1.465,-2.563,-0.916
0.187,-0.245,1.012,0.732,-1.831,-0.549
0.192,-0.238,0.997,0.793,-0.610,0.305
0.195,-0.231,0.990,0.732,-0.183,0.732
0.195,-0.229,0.989,0.732,-0.793,0.793
0.198,-0.224,0.979,0.732,-1.343,1.038
0.193,-0.228,0.986,0.305,-2.197,0.854
0.190,-0.224,0.995,-0.061,-2.808,0.488
0.191,-0.208,0.996,0.366,-2.563,0.854
0.190,-0.197,0.988,0.854,-1.709,0.671
0.196,-0.210,0.991,1.038,-1.831,-0.061
0.201,-0.228,1.007,0.793,-2.319,-0.671
0.201,-0.228,1.019,0.671,-2.625,-0.366
0.203,-0.224,1.025,1.099,-2.136,0.488
0.202,-0.222,0.999,1.282,-0.671,0.977
0.199,-0.217,1.001,1.404,-0.977,1.221
0.194,-0.217,1.008,1.160,-2.136,1.099
0.190,-0.235,1.014,0.732,-2.808,0.366
0.181,-0.237,1.030,0.427,-3.113,-0.183
0.177,-0.227,1.025,0.427,-2.136,0.305
0.182,-0.218,1.016,0.122,-0.427,0.366
0.192,-0.221,1.000,-0.549,0.610,-0.183
0.204,-0.214,0.996,-0.854,0.488,-0.671
0.215,-0.215,0.981,-0.244,0.000,-1.099
0.221,-0.223,0.970,0.305,-0.244,-1.099
0.223,-0.219,0.975,0.671,-0.977,-0.122
0.222,-0.212,0.978,0.916,-1.343,0.732

-0.504,-0.838,1.638,117.493,-158.813,-63.171
-0.473,-0.851,1.638,103.577,-114.441,-46.997
-0.418,-0.841,1.541,86.609,-71.777,-31.006
-0.356,-0.786,1.441,68.359,-38.635,-17.273
-0.320,-0.744,1.312,51.025,-16.296,-7.324
-0.285,-0.684,1.176,37.170,-4.211,-0.061
-0.254,-0.596,1.094,26.672,-0.366,4.211
-0.251,-0.557,1.034,19.287,-1.465,4.639
-0.268,-0.509,0.999,14.526,-3.662,2.747
-0.281,-0.494,0.994,10.803,-6.226,-0.366
-0.281,-0.507,0.959,7.568,-6.714,-4.089
-0.268,-0.515,0.944,4.211,-5.615,-5.554
-0.252,-0.510,0.955,2.563,-4.089,-5.249
-0.239,-0.505,0.956,1.038,-0.427,-3.967
-0.226,-0.508,0.941,-0.977,4.822,-2.563
-0.208,-0.501,0.901,-2.991,9.338,-0.366
-0.197,-0.489,0.870,-3.906,12.207,2.197
-0.190,-0.468,0.866,-3.784,13.000,4.395
-0.184,-0.460,0.856,-3.296,12.939,5.615
-0.191,-0.462,0.845,-3.601,12.512,5.676
-0.197,-0.454,0.849,-3.479,10.620,5.798
-0.200,-0.450,0.844,-2.869,8.179,5.005
-0.203,-0.451,0.848,-1.770,5.615,3.662
-0.207,-0.459,0.866,-0.732,2.808,2.258
-0.204,-0.473,0.881,0.000,1.099,0.977
-0.195,-0.484,0.878,0.610,1.038,0.488
-0.187,-0.485,0.886,1.282,0.793,0.732
-0.186,-0.481,0.894,2.197,0.061,1.282
-0.189,-0.495,0.903,2.502,-0.366,1.282
-0.195,-0.512,0.935,2.075,-0.793,1.648
-0.209,-0.564,1.027,0.671,0.061,2.625
-0.226,-0.696,1.243,-6.165,3.540,3.845
-0.294,-0.875,1.608,-24.231,16.174,7.080
-0.363,-0.979,1.907,-50.476,47.607,15.808
-0.430,-1.064,2.135,-75.439,96.130,32.593
-0.490,-1.144,2.112,-97.717,157.288,56.274
-0.528,-1.132,1.886,-120.667,220.703,80.750
-0.502,-0.987,1.710,-135.254,267.761,106.201
-0.430,-0.747,1.292,-140.869,300.659,124.023
-0.323,-0.457,0.857,-139.099,310.425,130.676
-0.187,-0.260,0.563,-128.113,292.114,123.413
-0.047,-0.028,0.323,-114.624,258.789,109.009
0.082,0.112,0.124,-98.450,216.003,88.379
0.198,0.272,0.100,-86.731,163.086,64.453
0.286,0.251,0.159,-72.083,112.976,35.767
0.355,0.168,0.217,-55.603,72.571,10.742
0.416,0.083,0.306,-39.307,40.100,-4.211
0.455,-0.013,0.403,-24.963,15.198,-11.658
0.482,-0.078,0.492,-13.672,-2.441,-12.878
0.480,-0.112,0.555,-3.967,-14.893,-9.949
0.434,-0.167,0.653,3.235,-24.780,-6.287
0.355,-0.186,0.725,10.132,-30.945,-1.160
0.290,-0.171,0.755,16.113,-34.058,3.540
0.227,-0.181,0.825,18.127,-37.292,4.639
0.159,-0.220,0.903,19.470,-39.795,2.319
0.121,-0.232,0.955,21.362,-40.222,-0.183
0.108,-0.259,0.999,21.729,-40.649,-3.479
0.111,-0.301,1.040,19.714,-40.588,-7.080
0.114,-0.342,1.088,17.090,-39.551,-9.216
0.118,-0.375,1.102,15.381,-36.133,-9.338
0.124,-0.379,1.092,12.695,-31.006,-7.080
0.121,-0.349,1.078,8.972,-25.513,-4.517
0.119,-0.315,1.050,5.249,-19.775,-1.770
0.119,-0.293,0.999,2.502,-13.306,-0.183
0.117,-0.257,0.953,1.221,-8.057,1.099
0.121,-0.227,0.933,0.671,-4.944,1.404
0.136,-0.226,0.897,0.916,-2.869,-0.183
0.157,-0.217,0.881,1.282,-1.587,-1.587
0.171,-0.227,0.872,2.441,-1.953,-3.052
0.182,-0.240,0.885,3.845,-2.869,-3.967
0.183,-0.250,0.915,3.906,-3.906,-4.333
0.180,-0.270,0.967,3.845,-4.150,-4.456
0.177,-0.286,0.973,3.601,-2.747,-3.906
0.182,-0.292,0.983,2.991,-0.977,-2.808
0.188,-0.289,0.990,2.014,-0.183,-1.770
0.191,-0.280,0.995,1.770,0.488,-1.160
0.187,-0.279,1.000,1.770,0.793,-1.160
0.186,-0.281,0.997,2.136,1.404,-1.282
0.185,-0.276,1.001,2.197,1.831,-1.221
0.189,-0.270,0.998,2.502,2.380,-1.526
0.197,-0.276,0.997,2.563,2.625,-1.953
0.206,-0.290,0.999,2.686,2.747,-2.197
0.213,-0.295,0.992,2.686,2.686,-1.953
0.220,-0.291,0.988,2.502,2.258,-0.916
0.224,-0.271,0.965,2.441,1.648,-0.122
0.227,-0.269,0.969,2.747,0.000,0.244
0.223,-0.279,0.959,2.808,-1.221,0.427
0.214,-0.287,0.990,2.747,-2.075,1.099
0.206,-0.292,0.994,2.563,-1.526,2.380
0.198,-0.282,0.979,3.052,-0.488,3.845
0.192,-0.260,0.974,3.418,-0.854,4.822
0.185,-0.253,0.963,4.028,-1.831,4.272
0.175,-0.245,0.962,4.639,-3.296,3.052
0.173,-0.255,0.968,5.493,-4.089,1.648
0.169,-0.267,0.984,5.371,-4.395,0.366
0.172,-0.274,1.010,5.371,-4.333,0.000
0.173,-0.285,0.997,5.371,-3.540,0.061
0.172,-0.271,0.987,5.249,-2.869,0.671
0.175,-0.267,0.989,5.310,-2.991,0.793
0.180,-0.301,0.992,4.272,-3.113,-0.305
0.187,-0.286,1.047,2.258,-3.174,0.000
0.185,-0.292,1.030,1.221,-0.305,1.099
0.186,-0.294,0.997,0.610,2.502,1.770
0.186,-0.270,0.984,0.122,2.075,2.808
0.179,-0.256,0.972,0.488,1.038,2.808
0.179,-0.257,0.969,1.648,-0.732,1.892
0.181,-0.250,0.979,2.808,-1.892,1.038
0.176,-0.257,0.992,2.808,-2.258,0.183
0.177,-0.265,0.983,3.601,-1.526,-0.427
0.178,-0.260,0.985,4.333,-1.465,-0.305
0.180,-0.264,0.993,4.333,-1.892,-0.916
0.190,-0.306,0.991,3.723,-2.441,-1.953
0.197,-0.294,1.026,2.930,-3.174,-1.831
0.194,-0.275,1.018,2.441,-1.770,0.000
0.192,-0.283,0.982,2.502,0.732,0.366
0.191,-0.269,0.986,2.441,0.305,0.732
0.186,-0.267,0.987,2.625,-0.488,0.549
0.189,-0.275,0.985,2.380,-1.648,-0.427
0.193,-0.289,1.007,2.197,-2.747,-1.160

-0.793,-0.824,1.493,175.598,-228.027,-80.627
-0.783,-0.894,1.510,154.663,-176.331,-69.092
-0.754,-0.912,1.453,134.338,-129.150,-57.556
-0.711,-0.913,1.351,113.220,-90.271,-48.218
-0.657,-0.869,1.216,91.797,-60.364,-40.405
-0.618,-0.815,1.115,72.693,-40.894,-35.522
-0.590,-0.768,1.058,58.655,-29.846,-33.569
-0.562,-0.749,1.055,48.462,-23.315,-33.142
-0.516,-0.756,1.027,37.964,-16.724,-32.654
-0.465,-0.750,1.001,27.893,-11.841,-31.189
-0.407,-0.718,0.821,20.447,-7.874,-28.137
-0.372,-0.662,0.934,15.381,-11.841,-24.719
-0.394,-0.688,0.988,10.620,-14.465,-23.560
-0.389,-0.681,0.956,7.629,-7.019,-20.386
-0.379,-0.667,0.955,2.319,0.305,-14.893
-0.363,-0.674,0.904,-4.395,10.010,-9.827
-0.343,-0.646,0.841,-9.277,19.043,-3.906
-0.327,-0.596,0.825,-11.597,23.865,2.136
-0.314,-0.556,0.778,-12.878,27.710,5.859
-0.302,-0.544,0.728,-13.428,29.419,7.385
-0.295,-0.541,0.693,-12.695,27.466,7.690
-0.296,-0.531,0.671,-9.521,23.071,7.935
-0.306,-0.514,0.682,-5.493,16.602,7.629
-0.318,-0.507,0.701,-2.197,9.827,6.104
-0.325,-0.514,0.714,1.038,4.761,3.662
-0.332,-0.521,0.754,3.235,0.244,1.282
-0.347,-0.553,0.786,4.517,-2.808,-1.038
-0.353,-0.576,0.812,5.493,-3.662,-2.686
-0.354,-0.597,0.839,5.005,-4.089,-3.357
-0.341,-0.614,0.834,4.333,-3.113,-3.174
-0.336,-0.615,0.824,3.418,-1.770,-1.587
-0.340,-0.594,0.827,2.502,-1.404,0.244
-0.336,-0.584,0.805,0.488,-0.671,1.404
-0.333,-0.569,0.785,-0.305,-0.427,2.075
-0.334,-0.547,0.783,0.366,-1.831,2.502
-0.335,-0.540,0.769,1.221,-2.991,1.953
-0.336,-0.549,0.770,2.136,-3.784,1.160
-0.341,-0.548,0.787,3.174,-4.456,0.977
-0.349,-0.551,0.803,4.211,-4.517,0.977
-0.353,-0.557,0.806,4.272,-4.028,1.038
-0.352,-0.557,0.803,3.784,-3.357,0.854
-0.348,-0.548,0.797,3.235,-2.625,1.160
-0.341,-0.546,0.789,2.808,-2.441,1.221
-0.335,-0.563,0.790,3.235,-2.441,1.160
-0.345,-0.568,0.786,4.272,-2.808,1.831
-0.357,-0.559,0.808,4.456,-3.784,2.258
-0.369,-0.566,0.817,3.906,-3.662,2.258
-0.373,-0.570,0.818,3.235,-2.625,2.258
-0.364,-0.566,0.825,2.747,-2.014,2.563
-0.356,-0.568,0.804,1.892,-0.793,2.625
-0.353,-0.555,0.794,1.465,-0.488,2.930
-0.359,-0.545,0.786,1.831,-0.793,3.052
-0.362,-0.537,0.787,2.380,-1.404,2.502
-0.369,-0.534,0.793,2.197,-2.380,1.404
-0.378,-0.546,0.788,2.136,-2.441,-0.427
-0.376,-0.551,0.794,2.136,-2.502,-1.465
-0.373,-0.549,0.793,1.526,-2.136,-1.892
-0.367,-0.558,0.796,1.465,-2.136,-2.441
-0.358,-0.546,0.798,1.831,-2.075,-2.441
-0.352,-0.557,0.808,1.648,-2.380,-2.869
-0.352,-0.580,0.808,1.465,-2.014,-3.174
-0.350,-0.580,0.821,1.343,-1.404,-2.014
-0.351,-0.562,0.824,1.160,-0.366,-0.549
-0.354,-0.574,0.811,-0.061,0.916,-0.427
-0.345,-0.580,0.799,-0.916,1.099,-0.488
-0.349,-0.568,0.795,-1.221,0.671,0.305
-0.350,-0.563,0.805,-0.793,-0.549,0.488
-0.352,-0.561,0.788,0.061,-0.916,0.244
-0.352,-0.560,0.795,0.610,-1.526,0.000
-0.356,-0.569,0.803,1.221,-2.136,-0.305
-0.357,-0.571,0.806,1.465,-1.282,0.000
-0.352,-0.569,0.815,1.465,-0.793,0.366
-0.348,-0.563,0.807,1.465,0.122,0.732
-0.346,-0.560,0.799,1.526,0.610,0.793
-0.346,-0.568,0.801,1.831,0.488,0.916
-0.347,-0.564,0.798,1.892,0.549,1.404
-0.343,-0.557,0.794,1.526,0.549,1.892
-0.344,-0.552,0.790,1.648,0.183,2.075
-0.344,-0.545,0.793,1.831,-0.366,2.197
-0.344,-0.548,0.788,1.648,-0.732,1.648
-0.351,-0.557,0.788,1.526,-1.221,1.343
-0.354,-0.556,0.798,1.770,-1.709,1.465
-0.354,-0.555,0.799,1.648,-1.465,1.343
-0.357,-0.557,0.798,1.587,-1.282,1.221
-0.358,-0.557,0.803,1.709,-1.282,1.160
-0.359,-0.557,0.795,1.892,-1.038,1.160
-0.358,-0.553,0.797,1.587,-0.610,1.404
-0.355,-0.552,0.792,1.404,-0.610,1.465
-0.355,-0.554,0.800,1.709,-0.366,1.343
-0.358,-0.557,0.805,2.075,-0.122,1.404
-0.360,-0.566,0.803,1.953,0.549,1.221
-0.359,-0.556,0.807,1.892,0.854,1.343
-0.352,-0.555,0.799,1.648,1.343,1.343
-0.343,-0.557,0.793,1.099,1.465,0.977
-0.338,-0.557,0.790,0.793,1.099,0.916
-0.336,-0.551,0.794,0.732,0.488,1.160
-0.335,-0.556,0.801,0.854,0.122,1.038
-0.337,-0.564,0.796,0.854,0.305,1.221
-0.341,-0.568,0.798,1.221,0.427,1.770
-0.345,-0.562,0.807,1.099,0.610,2.625
-0.351,-0.557,0.802,1.160,0.916,2.869
-0.354,-0.553,0.791,1.404,0.854,2.380
-0.354,-0.549,0.787,1.465,0.366,1.953
-0.352,-0.546,0.791,1.648,-0.244,1.404
-0.349,-0.554,0.781,2.014,-0.610,0.671
-0.347,-0.555,0.797,2.563,-1.526,0.305
-0.351,-0.555,0.799,3.113,-1.770,0.244
-0.354,-0.551,0.797,3.296,-1.526,0.061
-0.355,-0.555,0.812,3.296,-1.892,-0.305
-0.349,-0.572,0.797,3.052,-1.282,-0.916
-0.339,-0.572,0.797,2.747,-0.793,-0.549
-0.337,-0.567,0.806,1.831,-1.099,0.183
-0.343,-0.562,0.821,1.709,-1.038,0.671
-0.346,-0.568,0.821,1.587,0.000,0.977
-0.348,-0.582,0.833,1.038,0.977,1.282
-0.354,-0.606,0.861,0.305,2.136,1.953
-0.365,-0.644,0.918,-1.160,4.333,3.113
-0.372,-0.689,0.964,-5.554,8.972,5.676
-0.385,-0.798,1.186,-15.747,15.442,9.338

-0.429,-0.979,1.459,-41.870,59.082,29.175
-0.475,-1.150,1.648,-65.369,92.102,43.823
-0.517,-1.211,1.769,-92.896,134.033,65.430
-0.538,-1.196,1.728,-118.713,181.335,91.797
-0.554,-1.099,1.644,-140.869,223.938,116.028
-0.593,-0.979,1.447,-152.832,259.216,136.047
-0.548,-0.749,1.112,-153.992,287.598,149.353
-0.453,-0.512,0.847,-153.198,296.875,151.489
-0.379,-0.286,0.500,-153.503,289.917,143.250
-0.263,-0.094,0.255,-145.325,263.916,126.221
-0.100,0.087,0.214,-128.845,219.910,104.492
0.037,0.168,0.162,-109.924,176.758,76.843
0.151,0.161,0.126,-90.393,136.353,48.828
0.239,0.134,0.180,-68.726,96.252,25.330
0.295,0.033,0.288,-48.645,60.242,6.775
0.315,-0.044,0.384,-31.189,31.860,-4.395
0.345,-0.090,0.503,-16.968,10.132,-8.850
0.364,-0.131,0.569,-5.493,-5.249,-11.292
0.356,-0.162,0.655,2.747,-17.456,-11.536
0.331,-0.206,0.725,8.789,-26.184,-10.681
0.281,-0.269,0.759,13.672,-31.494,-9.277
0.227,-0.272,0.797,18.799,-35.767,-6.592
0.176,-0.279,0.850,22.705,-39.978,-5.127
0.121,-0.302,0.902,24.963,-41.870,-5.310
0.079,-0.335,0.979,26.001,-41.931,-5.920
0.058,-0.359,1.025,25.269,-39.307,-6.042
0.050,-0.387,1.040,23.560,-34.119,-6.042
0.051,-0.404,1.043,20.874,-29.602,-5.798
0.054,-0.410,1.049,17.334,-26.367,-5.310
0.053,-0.415,1.051,14.282,-24.292,-5.127
0.050,-0.404,1.032,11.475,-22.034,-4.333
0.044,-0.381,1.004,9.216,-19.836,-3.662
0.043,-0.354,0.984,7.263,-17.517,-3.418
0.051,-0.331,0.965,5.493,-14.771,-3.784
0.060,-0.331,0.954,3.845,-12.573,-5.066
0.068,-0.348,0.954,2.808,-10.681,-6.042
0.079,-0.350,0.956,2.258,-8.606,-6.104
0.083,-0.343,0.950,2.014,-6.287,-5.554
0.092,-0.346,0.939,1.099,-4.028,-5.066
0.104,-0.352,0.927,0.427,-2.563,-4.456
0.103,-0.345,0.946,0.427,-1.404,-3.174
0.103,-0.349,0.958,0.732,0.427,-1.892
0.106,-0.356,0.940,0.610,2.380,-1.282
0.111,-0.351,0.946,-0.183,2.197,-0.610
0.107,-0.346,0.953,-0.061,0.916,-0.549
0.104,-0.349,0.969,0.793,-0.854,-1.160
0.100,-0.362,0.979,1.587,-2.075,-1.953
0.100,-0.358,1.001,1.648,-1.953,-2.136
0.097,-0.368,1.003,1.343,-1.221,-2.197
0.101,-0.362,0.992,1.282,0.122,-1.831
0.107,-0.359,0.984,1.770,0.610,-1.404
0.108,-0.348,0.979,2.197,0.916,-1.099
0.111,-0.343,0.976,2.625,1.038,-0.793
0.114,-0.346,0.955,3.357,0.732,-1.099
0.114,-0.350,0.957,4.272,-0.732,-1.221
0.110,-0.360,0.968,4.578,-2.502,-1.282
0.106,-0.346,0.990,4.517,-3.235,-0.610
0.102,-0.340,0.976,4.150,-2.197,0.061
0.101,-0.342,0.959,4.578,-1.099,0.305
0.099,-0.336,0.955,4.761,-1.343,0.854
0.094,-0.332,0.966,4.578,-2.197,0.366
0.093,-0.336,0.981,4.272,-3.174,-0.488
0.090,-0.351,0.978,4.883,-3.357,-1.343
0.086,-0.362,0.994,5.371,-3.540,-1.831
0.084,-0.371,1.001,5.127,-3.723,-1.709
0.090,-0.375,0.988,3.967,-3.174,-1.770
0.098,-0.354,1.008,2.686,-2.869,-0.916
0.102,-0.359,1.000,2.563,-1.465,-0.549
0.106,-0.362,0.985,2.869,-0.366,-0.122
0.106,-0.352,0.983,2.808,-1.038,0.183
0.106,-0.360,0.985,2.991,-1.831,-0.061
0.112,-0.364,0.988,2.502,-2.625,-0.244
0.106,-0.359,0.997,1.831,-2.686,0.000
0.097,-0.351,0.989,1.892,-1.709,0.854
0.095,-0.342,0.971,2.258,-0.366,1.465
0.088,-0.342,0.969,2.747,-0.488,1.221
0.089,-0.346,0.967,2.930,-1.038,0.610
0.094,-0.359,0.972,1.953,-1.648,-0.671
0.099,-0.351,1.001,1.526,-1.709,-0.366
0.100,-0.359,0.975,2.197,0.183,0.488
0.099,-0.343,0.959,2.563,1.221,1.221
0.097,-0.329,0.961,2.808,0.061,1.160
0.099,-0.333,0.945,3.418,-0.793,-0.122
0.105,-0.342,0.941,3.723,-2.441,-1.221
0.109,-0.349,0.965,4.089,-3.906,-1.892
0.104,-0.354,0.974,4.517,-4.028,-1.404
0.099,-0.360,0.975,4.761,-3.662,-1.038
0.099,-0.373,0.988,4.333,-3.723,-0.671
0.100,-0.384,0.980,3.296,-3.601,-0.671
0.105,-0.374,0.990,2.319,-3.662,-0.122
0.101,-0.362,0.995,1.587,-2.625,1.099
0.094,-0.360,0.969,1.648,-0.793,1.648
0.091,-0.352,0.968,1.587,-0.671,1.770
0.087,-0.350,0.962,1.465,-0.854,1.526
0.087,-0.349,0.959,1.953,-1.160,1.343
0.088,-0.346,0.973,2.380,-1.465,1.038
0.087,-0.346,0.961,3.052,-1.099,0.977
0.087,-0.346,0.952,3.418,-1.160,1.038
0.088,-0.349,0.954,3.601,-2.075,0.488
0.086,-0.346,0.963,3.418,-2.869,-0.061
0.087,-0.354,0.972,3.418,-3.357,-0.610
0.082,-0.375,0.977,3.235,-3.357,-1.099
0.080,-0.375,0.986,2.502,-3.357,-0.671
0.085,-0.370,1.000,2.014,-2.808,-0.061
0.087,-0.360,0.975,1.648,-0.732,0.671
0.091,-0.344,0.958,1.709,0.305,1.160
0.094,-0.342,0.950,1.709,-0.122,0.732
0.096,-0.340,0.956,2.197,-1.160,0.183
0.092,-0.347,0.962,2.747,-2.075,-0.671
0.088,-0.351,0.975,3.113,-2.380,-0.916
0.087,-0.358,0.984,3.296,-2.075,-0.977
0.089,-0.365,0.979,3.235,-1.343,-1.099
0.095,-0.361,0.973,3.235,-0.977,-0.854
0.097,-0.366,0.977,2.991,-1.221,-0.671
0.100,-0.369,0.971,2.319,-1.160,-0.366
0.099,-0.365,0.977,1.465,-1.526,0.183
0.095,-0.360,0.974,1.282,-1.648,0.793
0.093,-0.353,0.973,1.343,-1.587,1.160
0.092,-0.347,0.974,1.160,-1.709,1.099

-0.694,-1.014,1.458,194.458,-258.545,-156.189
-0.746,-1.210,1.711,167.664,-217.224,-140.503
-0.708,-1.310,1.812,136.536,-154.724,-110.046
-0.624,-1.336,1.670,108.887,-86.304,-70.801
-0.540,-1.249,1.411,79.468,-23.499,-28.931
-0.466,-1.040,0.984,51.025,20.813,8.118
-0.429,-0.791,0.895,34.058,38.513,33.752
-0.458,-0.614,0.859,24.292,36.011,42.786
-0.459,-0.585,0.843,18.250,33.997,38.330
-0.475,-0.643,0.864,12.024,29.297,29.602
-0.479,-0.692,0.862,5.798,26.306,23.560
-0.470,-0.704,0.859,2.258,26.062,21.362
-0.458,-0.679,0.858,-3.235,27.954,21.790
-0.434,-0.665,0.834,-11.353,31.921,22.339
-0.396,-0.616,0.797,-16.174,35.828,23.254
-0.354,-0.585,0.746,-19.409,37.537,22.766
-0.320,-0.552,0.702,-21.545,36.926,21.057
-0.296,-0.547,0.685,-21.912,33.752,18.860
-0.279,-0.524,0.672,-20.508,30.701,17.639
-0.266,-0.516,0.657,-18.921,27.283,16.235
-0.258,-0.520,0.662,-17.273,23.193,14.526
-0.265,-0.529,0.698,-14.343,19.653,13.794
-0.281,-0.534,0.721,-10.193,18.372,13.794
-0.291,-0.548,0.749,-7.141,18.311,13.855
-0.299,-0.574,0.777,-4.883,19.409,13.855
-0.305,-0.595,0.791,-2.930,20.996,13.977
-0.304,-0.603,0.803,-1.343,22.156,14.221
-0.290,-0.604,0.806,-1.404,22.217,13.733
-0.268,-0.613,0.791,-2.258,21.545,12.085
-0.242,-0.608,0.771,-2.991,18.433,10.498
-0.220,-0.596,0.767,-3.540,13.489,9.216
-0.215,-0.600,0.756,-3.235,7.690,7.507
-0.219,-0.601,0.760,-2.380,1.831,6.165
-0.233,-0.590,0.768,-1.404,-3.418,5.676
-0.249,-0.570,0.806,-0.549,-7.568,4.822
-0.266,-0.582,0.821,0.305,-9.094,3.601
-0.276,-0.592,0.814,1.160,-7.568,3.052
-0.280,-0.579,0.813,1.465,-5.737,4.028
-0.286,-0.567,0.802,1.709,-3.662,4.761
-0.285,-0.558,0.787,2.319,-1.709,5.188
-0.283,-0.558,0.775,2.991,-0.427,4.883
-0.283,-0.564,0.782,3.662,-0.549,3.723
-0.289,-0.571,0.794,4.333,-1.282,2.502
-0.290,-0.573,0.804,5.371,-1.831,1.465
-0.289,-0.592,0.800,5.432,-2.258,0.183
-0.289,-0.601,0.809,5.920,-2.930,-0.427
-0.291,-0.598,0.822,5.981,-3.296,-0.305
-0.286,-0.604,0.826,5.554,-3.052,-0.549
-0.281,-0.615,0.823,4.211,-2.625,-0.549
-0.282,-0.615,0.835,3.113,-2.502,-0.183
-0.283,-0.607,0.835,2.197,-1.892,0.549
-0.283,-0.603,0.829,1.587,-0.793,0.916
-0.284,-0.601,0.821,0.977,0.122,0.916
-0.277,-0.585,0.825,0.671,0.671,1.160
-0.276,-0.578,0.814,0.793,1.160,1.160
-0.277,-0.583,0.796,0.854,2.075,0.427
-0.276,-0.577,0.798,1.099,1.282,0.000
-0.274,-0.569,0.797,1.587,0.427,-0.366
-0.272,-0.568,0.799,2.136,-0.305,-1.526
-0.267,-0.578,0.799,2.808,-0.977,-2.747
-0.263,-0.591,0.803,3.235,-1.831,-3.540
-0.257,-0.599,0.817,3.418,-2.502,-3.540
-0.255,-0.610,0.829,3.479,-2.747,-3.174
-0.251,-0.623,0.839,3.357,-2.441,-2.686
-0.248,-0.622,0.830,2.991,-1.831,-1.526
-0.251,-0.610,0.823,2.563,-1.465,-0.061
-0.253,-0.599,0.825,2.686,-1.526,1.038
-0.253,-0.598,0.806,2.625,-1.343,1.099
-0.254,-0.600,0.803,2.808,-1.953,1.038
-0.256,-0.590,0.803,2.991,-2.808,1.587
-0.264,-0.579,0.802,3.113,-3.540,1.587
-0.272,-0.587,0.799,3.113,-3.784,0.793
-0.279,-0.595,0.808,2.808,-4.028,0.244
-0.284,-0.591,0.808,2.930,-4.150,0.244
-0.287,-0.583,0.812,2.991,-3.906,0.183
-0.282,-0.579,0.813,2.930,-3.174,0.000
-0.280,-0.583,0.801,2.625,-2.075,-0.366
-0.278,-0.583,0.798,2.502,-1.770,-0.427
-0.276,-0.587,0.792,2.502,-1.770,-0.732
-0.275,-0.590,0.797,2.502,-2.136,-1.099
-0.281,-0.591,0.810,2.197,-3.113,-1.160
-0.287,-0.593,0.816,2.258,-2.930,-1.343
-0.287,-0.598,0.817,2.014,-2.258,-1.587
-0.285,-0.599,0.814,1.648,-1.526,-1.587
-0.278,-0.590,0.808,1.099,-0.610,-1.282
-0.270,-0.585,0.805,0.793,0.183,-1.038
-0.267,-0.591,0.803,0.854,0.305,-1.282
-0.267,-0.594,0.798,1.038,0.305,-1.160
-0.264,-0.584,0.801,1.160,-0.305,-0.671
-0.263,-0.583,0.799,1.282,-0.488,-0.732
-0.267,-0.584,0.794,1.343,-0.793,-0.854
-0.266,-0.583,0.802,1.709,-1.343,-0.916
-0.267,-0.586,0.811,2.075,-1.709,-0.916
-0.269,-0.591,0.803,1.831,-1.343,-0.977
-0.273,-0.595,0.813,1.831,-1.465,-0.854
-0.277,-0.598,0.818,2.136,-1.770,-0.854
-0.276,-0.595,0.818,2.014,-1.404,-0.854
-0.275,-0.599,0.821,1.343,-0.916,-0.793
-0.272,-0.606,0.817,1.221,-0.427,-0.916
-0.264,-0.594,0.806,1.282,-0.183,-0.183
-0.262,-0.590,0.811,1.099,-0.549,0.183
-0.264,-0.599,0.804,1.282,-0.671,0.061
-0.265,-0.594,0.797,1.709,-0.916,0.427
-0.270,-0.584,0.806,1.709,-1.648,0.732
-0.272,-0.582,0.803,1.831,-1.770,0.732
-0.271,-0.591,0.800,1.709,-1.465,0.244
-0.273,-0.585,0.795,2.197,-1.465,0.427
-0.274,-0.574,0.802,2.380,-1.587,0.549
-0.274,-0.579,0.793,1.953,-1.587,0.122
-0.273,-0.585,0.801,1.831,-1.831,-0.366
-0.274,-0.593,0.813,2.197,-2.075,-0.183
-0.280,-0.599,0.812,1.892,-1.587,-0.244
-0.281,-0.597,0.813,1.587,-1.465,0.061
-0.278,-0.590,0.804,1.343,-0.732,0.427
-0.276,-0.583,0.804,1.343,-0.427,0.671
-0.276,-0.581,0.790,1.404,-0.427,0.488
-0.276,-0.579,0.791,1.343,-0.977,0.000
-0.277,-0.576,0.790,1.892,-1.526,-0.427
-0.275,-0.577,0.795,2.258,-2.014,-1.099

-0.408,-1.289,1.869,-63.965,60.547,32.166
-0.476,-1.439,1.896,-91.553,116.760,61.646
-0.550,-1.501,1.837,-123.047,176.941,96.619
-0.573,-1.255,1.763,-150.208,228.455,138.550
-0.641,-1.147,1.535,-158.875,273.865,168.213
-0.576,-0.854,1.080,-157.166,312.195,189.270
-0.456,-0.498,0.656,-160.583,324.646,198.547
-0.341,-0.316,0.410,-157.471,308.167,185.547
-0.203,0.029,0.153,-148.682,277.283,167.358
-0.022,0.297,-0.016,-122.986,233.276,139.160
0.156,0.443,-0.014,-96.375,175.354,100.220
0.274,0.403,0.006,-74.951,120.911,54.993
0.358,0.266,0.111,-54.504,72.266,15.137
0.405,0.066,0.281,-33.264,31.128,-11.536
0.421,-0.042,0.394,-11.719,3.357,-23.987
0.425,-0.106,0.496,6.470,-14.465,-26.611
0.402,-0.186,0.613,19.470,-27.161,-26.672
0.381,-0.279,0.677,25.452,-33.936,-24.841
0.343,-0.336,0.706,27.405,-37.354,-20.203
0.277,-0.353,0.798,28.870,-42.236,-14.282
0.206,-0.365,0.865,30.273,-44.922,-10.925
0.152,-0.378,0.895,30.579,-44.373,-9.338
0.114,-0.399,0.941,30.212,-44.250,-9.827
0.083,-0.438,0.993,28.687,-43.518,-11.292
0.064,-0.468,1.033,26.550,-40.649,-12.573
0.053,-0.485,1.042,24.536,-36.926,-12.756
0.057,-0.494,1.049,21.667,-33.752,-12.939
0.066,-0.500,1.047,17.395,-31.006,-13.184
0.079,-0.494,1.034,12.207,-27.832,-12.573
0.090,-0.488,1.013,7.446,-24.658,-11.536
0.096,-0.460,0.992,4.150,-20.630,-9.155
0.093,-0.448,0.958,1.343,-15.930,-6.836
0.091,-0.425,0.935,-1.099,-11.780,-5.493
0.091,-0.404,0.934,-2.625,-7.751,-3.723
0.099,-0.389,0.885,-3.235,-3.845,-2.991
0.114,-0.378,0.884,-4.333,-1.648,-2.808
0.125,-0.362,0.841,-4.883,-0.366,-2.747
0.133,-0.348,0.841,-4.395,-0.427,-3.357
0.145,-0.341,0.853,-3.113,-1.892,-4.395
0.151,-0.354,0.863,-1.953,-2.319,-5.615
0.151,-0.380,0.885,-0.671,-2.869,-6.042
0.152,-0.402,0.899,0.732,-3.418,-6.042
0.152,-0.408,0.916,1.160,-3.723,-5.432
0.146,-0.412,0.943,1.587,-4.211,-4.944
0.145,-0.415,0.949,2.197,-4.150,-4.639
0.139,-0.416,0.947,2.991,-3.601,-4.150
0.139,-0.414,0.959,3.540,-3.662,-3.662
0.141,-0.411,0.965,3.784,-3.418,-3.479
0.143,-0.423,0.973,3.845,-2.808,-3.601
0.141,-0.432,0.974,4.150,-2.197,-3.296
0.144,-0.429,0.978,4.211,-2.075,-2.563
0.142,-0.423,0.974,4.150,-2.319,-2.075
0.135,-0.418,0.974,4.395,-2.258,-1.587
0.139,-0.423,0.956,4.089,-2.319,-1.465
0.140,-0.420,0.962,3.052,-2.930,-1.404
0.134,-0.408,0.966,2.808,-3.662,-0.793
0.131,-0.399,0.949,2.991,-3.357,-0.671
0.137,-0.393,0.940,2.869,-3.479,-0.732
0.140,-0.387,0.931,2.869,-3.540,-1.038
0.139,-0.385,0.925,3.784,-3.906,-1.160
0.138,-0.380,0.930,5.066,-4.883,-1.526
0.130,-0.393,0.938,6.042,-6.531,-2.319
0.129,-0.406,0.964,7.202,-7.507,-2.991
0.122,-0.402,0.982,7.568,-7.446,-2.991
0.121,-0.422,0.982,7.019,-6.409,-3.296
0.123,-0.424,0.983,7.019,-5.432,-2.869
0.128,-0.434,0.983,6.592,-4.700,-2.197
0.134,-0.440,0.990,5.127,-4.517,-1.831
0.139,-0.431,0.985,4.333,-4.211,-0.732
0.133,-0.427,0.976,3.967,-3.723,0.305
0.125,-0.417,0.969,3.601,-3.845,0.916
0.120,-0.406,0.966,3.479,-4.028,1.160
0.121,-0.398,0.962,3.113,-4.333,0.854
0.119,-0.399,0.970,3.357,-4.211,0.244
0.118,-0.408,0.949,4.028,-4.028,-0.061
0.119,-0.405,0.950,4.333,-4.395,-0.122
0.114,-0.412,0.967,4.028,-5.310,-0.671
0.110,-0.428,0.977,3.601,-5.554,-1.465
0.111,-0.433,0.993,2.441,-5.188,-1.404
0.109,-0.452,0.990,1.038,-4.211,-0.854
0.110,-0.439,0.989,-0.183,-2.991,0.549
0.109,-0.417,0.973,-0.977,-1.404,2.136
0.114,-0.400,0.951,-1.526,-0.122,2.502
0.120,-0.395,0.933,-1.709,0.244,2.441
0.119,-0.385,0.917,-1.160,-0.122,2.014
0.119,-0.370,0.929,-0.732,-1.343,1.587
0.118,-0.386,0.941,-0.061,-1.831,0.671
0.119,-0.422,0.948,-0.122,-1.587,-0.488
0.119,-0.438,0.978,-1.282,-1.831,0.000
0.119,-0.428,0.979,-2.136,-0.854,1.404
0.122,-0.424,0.963,-2.747,0.610,2.625
0.118,-0.412,0.950,-3.113,1.526,3.601
0.119,-0.394,0.934,-3.174,2.197,4.578
0.121,-0.384,0.928,-2.563,2.197,4.944
0.117,-0.394,0.935,-2.136,1.648,4.395
0.114,-0.410,0.949,-1.892,1.343,4.089
0.116,-0.406,0.958,-1.465,1.343,4.761
0.116,-0.361,0.945,-1.404,2.441,5.859
0.113,-0.393,0.936,-1.282,2.869,4.456
0.113,-0.373,0.920,1.526,3.174,4.822
0.115,-0.356,0.911,3.357,2.258,4.578
0.115,-0.353,0.916,4.333,0.061,2.625
0.119,-0.367,0.918,5.066,-1.953,0.305
0.117,-0.387,0.940,5.676,-3.784,-1.831
0.118,-0.407,0.962,6.348,-4.822,-3.052
0.120,-0.437,0.987,5.554,-5.005,-3.723
0.119,-0.436,0.983,4.333,-4.456,-2.686
0.124,-0.424,0.976,4.028,-3.418,-0.793
0.124,-0.418,0.955,3.784,-2.319,0.427
0.120,-0.396,0.943,3.784,-1.770,1.099
0.118,-0.384,0.939,3.906,-2.625,0.854
0.117,-0.392,0.927,4.089,-3.296,-0.488
0.117,-0.409,0.944,3.845,-4.150,-1.648
0.111,-0.421,0.964,3.967,-4.822,-1.953
0.110,-0.419,0.969,3.845,-4.578,-1.526
0.111,-0.415,0.968,3.296,-4.028,-1.160
0.113,-0.411,0.953,2.502,-2.563,-0.610
0.120,-0.402,0.929,2.502,-1.648,-0.061
0.122,-0.383,0.915,3.052,-1.770,0.549

-0.741,-1.049,1.504,137.878,-174.500,-82.336
-0.721,-1.058,1.472,118.835,-117.188,-55.054
-0.641,-1.059,1.315,94.177,-62.500,-29.724
-0.574,-0.931,1.071,68.542,-20.203,-8.362
-0.542,-0.792,0.974,45.593,1.953,3.723
-0.495,-0.667,0.914,30.151,12.085,6.653
-0.436,-0.630,0.874,20.508,15.198,3.296
-0.400,-0.706,0.920,15.564,12.878,-3.845
-0.385,-0.788,0.994,10.071,11.536,-7.446
-0.399,-0.931,1.139,-1.221,14.526,-7.324
-0.425,-1.026,1.267,-14.465,26.001,-0.305
-0.444,-1.072,1.343,-25.879,47.974,15.869
-0.446,-1.080,1.392,-41.443,76.843,36.072
-0.448,-1.051,1.392,-61.768,108.093,56.519
-0.469,-1.041,1.328,-81.299,138.428,74.707
-0.448,-0.950,1.158,-95.398,164.490,91.492
-0.403,-0.809,1.052,-104.126,181.763,105.469
-0.378,-0.708,0.906,-108.215,191.345,112.000
-0.354,-0.555,0.802,-108.887,195.984,113.647
-0.325,-0.456,0.833,-108.337,192.688,109.497
-0.292,-0.401,0.808,-104.858,193.481,100.464
-0.238,-0.405,0.771,-104.004,194.458,89.111
-0.150,-0.405,0.715,-102.844,190.735,76.721
-0.030,-0.328,0.720,-100.830,180.725,67.200
0.077,-0.313,0.709,-98.267,169.861,56.335
0.186,-0.319,0.634,-93.201,156.494,44.922
0.251,-0.303,0.609,-86.792,139.038,35.950
0.306,-0.314,0.599,-77.332,117.859,28.992
0.333,-0.265,0.581,-65.308,97.717,25.452
0.348,-0.209,0.578,-54.688,78.735,22.461
0.340,-0.225,0.638,-46.570,58.777,15.991
0.332,-0.259,0.683,-37.598,42.725,9.094
0.311,-0.281,0.686,-29.846,30.579,5.493
0.299,-0.324,0.781,-24.597,18.677,2.502
0.288,-0.364,0.829,-18.677,10.071,1.526
0.264,-0.360,0.849,-13.245,6.226,3.479
0.248,-0.349,0.820,-8.423,3.296,5.005
0.244,-0.301,0.821,-3.723,-0.122,7.080
0.229,-0.291,0.825,0.000,-4.089,6.348
0.216,-0.284,0.808,4.150,-7.141,4.333
0.211,-0.277,0.828,8.301,-11.597,1.892
0.202,-0.291,0.861,10.681,-15.808,-1.648
0.192,-0.331,0.898,10.925,-17.883,-4.883
0.184,-0.381,0.931,10.681,-18.127,-6.470
0.182,-0.384,0.950,10.742,-16.602,-5.981
0.186,-0.370,0.939,10.864,-13.245,-4.089
0.197,-0.370,0.906,10.010,-10.864,-3.235
0.204,-0.363,0.895,9.399,-11.658,-3.479
0.209,-0.356,0.890,9.460,-13.916,-3.967
0.199,-0.362,0.921,9.766,-17.029,-4.700
0.177,-0.384,0.948,9.705,-18.616,-5.493
0.163,-0.387,0.953,9.766,-17.273,-4.578
0.160,-0.383,0.949,10.071,-15.259,-3.235
0.160,-0.371,0.948,9.949,-13.184,-2.563
0.161,-0.371,0.953,9.583,-12.024,-2.869
0.163,-0.367,0.924,8.972,-10.071,-3.052
0.167,-0.367,0.926,8.789,-9.583,-3.174
0.162,-0.386,0.931,7.874,-9.033,-3.479
0.166,-0.383,0.942,6.531,-7.385,-2.991
0.172,-0.384,0.936,4.883,-6.104,-2.319
0.177,-0.373,0.910,4.333,-4.822,-1.526
0.176,-0.353,0.901,4.700,-5.188,-1.099
0.182,-0.366,0.915,5.188,-7.019,-2.075
0.176,-0.407,0.939,4.395,-9.338,-3.723
0.171,-0.393,1.006,4.639,-9.460,-3.052
0.168,-0.400,0.969,4.639,-5.371,-1.282
0.170,-0.395,0.943,3.967,-2.686,-0.488
0.173,-0.375,0.940,4.028,-2.625,0.732
0.169,-0.360,0.926,4.578,-2.869,0.183
0.182,-0.385,0.943,4.456,-4.211,-1.648
0.186,-0.410,0.944,4.150,-4.761,-2.563
0.180,-0.392,0.971,4.761,-5.432,-1.343
0.175,-0.405,0.965,5.249,-4.639,-0.488
0.167,-0.403,0.955,4.883,-4.028,0.000
0.165,-0.407,0.969,4.883,-4.028,0.793
0.168,-0.398,0.964,4.578,-3.723,1.160
0.168,-0.383,0.961,4.456,-3.174,1.465
0.169,-0.394,0.937,4.456,-2.625,0.854
0.170,-0.375,0.919,4.639,-3.174,0.854
0.171,-0.390,0.943,5.249,-4.517,0.061
0.167,-0.405,0.944,5.310,-5.493,-1.038
0.161,-0.399,0.972,5.371,-6.287,-0.916
0.158,-0.404,0.963,5.310,-5.798,-0.732
0.153,-0.419,0.972,4.761,-5.554,-1.221
0.154,-0.420,0.974,4.089,-5.554,-1.099
0.158,-0.423,0.977,3.662,-4.944,-0.671
0.156,-0.406,0.966,3.723,-4.456,0.366
0.155,-0.408,0.962,3.967,-3.906,1.221
0.148,-0.394,0.940,3.784,-3.296,1.709
0.147,-0.381,0.939,3.845,-3.479,1.648
0.146,-0.369,0.943,4.578,-3.174,1.343
0.149,-0.381,0.934,5.127,-3.174,0.244
0.149,-0.402,0.942,4.944,-3.906,-1.221
0.146,-0.409,0.962,5.066,-4.700,-1.587
0.146,-0.413,0.976,4.883,-4.944,-1.404
0.146,-0.424,0.979,4.272,-4.639,-1.343
0.146,-0.439,0.984,3.418,-4.333,-0.793
0.142,-0.411,0.957,2.930,-3.418,0.671
0.147,-0.409,0.972,2.258,-3.113,1.160
0.147,-0.409,0.951,1.282,-2.075,1.282
0.146,-0.401,0.952,0.732,-1.709,1.221
0.150,-0.391,0.948,0.610,-1.953,1.282
0.150,-0.388,0.921,1.099,-1.831,0.610
0.156,-0.386,0.941,2.075,-2.625,0.305
0.160,-0.384,0.917,2.930,-2.869,0.000
0.158,-0.381,0.933,3.662,-3.357,-0.244
0.155,-0.389,0.944,3.906,-3.906,-0.732
0.154,-0.401,0.946,4.028,-3.845,-1.099
0.153,-0.398,0.951,3.906,-3.479,-0.549
0.152,-0.410,0.939,3.906,-2.625,-0.061
0.153,-0.412,0.947,3.967,-2.808,0.122
0.154,-0.404,0.950,3.845,-3.540,0.366
0.154,-0.410,0.958,3.723,-4.089,-0.122
0.150,-0.410,0.960,3.540,-4.333,-0.244
0.146,-0.404,0.954,3.662,-4.150,0.183
0.148,-0.395,0.949,3.967,-3.967,0.732
0.149,-0.394,0.941,3.906,-3.723,0.732
0.143,-0.403,0.953,3.784,-3.967,0.122
0.141,-0.406,0.952,3.540,-3.967,0.183

-1.200,-1.147,1.347,194.458,-336.487,-232.056
-1.111,-1.352,1.378,176.025,-278.809,-211.731
-1.061,-1.571,1.915,141.541,-220.947,-177.551
-0.982,-1.769,1.999,104.492,-138.611,-133.362
-0.858,-1.764,1.681,63.477,-36.743,-70.862
-0.729,-1.643,1.364,29.053,38.940,-8.423
-0.613,-1.350,0.984,3.662,86.914,46.204
-0.584,-0.990,0.898,-12.329,104.309,83.801
-0.622,-0.798,0.947,-21.912,105.347,97.290
-0.659,-0.788,0.899,-31.250,109.619,94.055
-0.655,-0.818,0.850,-44.250,112.488,87.158
-0.645,-0.855,0.886,-56.152,112.610,82.214
-0.640,-0.860,0.926,-64.819,117.188,81.787
-0.628,-0.869,0.967,-73.364,125.244,83.252
-0.596,-0.871,1.010,-82.153,138.184,87.280
-0.558,-0.883,1.005,-93.994,155.029,92.896
-0.540,-0.925,1.008,-106.018,172.852,99.304
-0.520,-0.883,0.945,-110.962,189.331,111.450
-0.470,-0.755,0.762,-109.680,205.872,125.244
-0.403,-0.568,0.620,-106.262,211.060,134.094
-0.345,-0.413,0.558,-102.600,204.956,132.080
-0.293,-0.318,0.543,-99.182,193.359,120.300
-0.226,-0.318,0.587,-94.604,179.321,102.600
-0.167,-0.345,0.660,-91.431,167.114,84.900
-0.127,-0.414,0.787,-91.370,157.715,71.533
-0.079,-0.467,0.904,-91.431,152.832,62.012
-0.033,-0.545,0.937,-87.219,153.320,56.091
0.020,-0.596,0.897,-81.055,155.334,56.396
0.082,-0.533,0.893,-75.745,153.625,62.012
0.125,-0.513,0.800,-71.472,149.719,62.866
0.164,-0.476,0.755,-67.871,140.930,60.913
0.203,-0.383,0.760,-63.904,125.427,61.340
0.229,-0.305,0.664,-55.054,113.831,57.190
0.249,-0.256,0.595,-46.875,96.741,49.622
0.272,-0.235,0.579,-38.452,75.989,38.940
0.286,-0.261,0.626,-31.982,55.786,28.137
0.292,-0.297,0.707,-25.879,39.429,19.775
0.289,-0.331,0.770,-21.118,29.480,14.587
0.299,-0.359,0.829,-17.517,24.597,12.085
0.308,-0.318,0.778,-13.489,23.315,12.268
0.322,-0.318,0.732,-8.301,19.531,11.108
0.338,-0.286,0.715,-4.578,11.658,10.071
0.337,-0.283,0.701,-0.610,2.686,7.446
0.325,-0.292,0.728,4.272,-6.897,4.883
0.294,-0.326,0.789,7.690,-15.930,1.648
0.255,-0.360,0.868,10.193,-22.827,-1.404
0.226,-0.382,0.929,11.475,-25.024,-2.869
0.203,-0.432,0.960,11.597,-23.804,-4.272
0.182,-0.461,0.996,10.254,-21.179,-4.395
0.180,-0.460,1.000,8.911,-17.456,-2.808
0.187,-0.447,0.977,7.202,-12.939,-1.343
0.203,-0.443,0.977,4.761,-10.559,-0.977
0.212,-0.434,0.917,3.601,-8.118,-0.916
0.219,-0.395,0.888,3.906,-8.118,0.183
0.222,-0.373,0.897,4.028,-10.376,0.061
0.212,-0.404,0.909,3.723,-11.780,-2.441
0.200,-0.420,0.935,3.113,-12.451,-3.052
0.195,-0.417,0.933,3.052,-11.108,-1.892
0.191,-0.415,0.921,3.357,-8.667,-0.549
0.188,-0.396,0.905,3.601,-6.714,1.038
0.192,-0.376,0.886,4.272,-5.310,2.014
0.193,-0.385,0.886,4.272,-5.005,1.343
0.189,-0.392,0.905,3.845,-6.104,0.122
0.183,-0.387,0.911,3.540,-5.981,-0.488
0.184,-0.394,0.911,3.296,-5.127,-0.793
0.186,-0.401,0.911,3.052,-4.456,-0.793
0.186,-0.399,0.909,3.113,-3.845,-0.549
0.192,-0.390,0.925,3.235,-3.418,-0.610
0.199,-0.411,0.923,3.174,-2.930,-1.465
0.199,-0.429,0.918,3.052,-2.808,-2.014
0.198,-0.419,0.932,3.357,-3.235,-1.282
0.201,-0.403,0.913,3.723,-2.502,-0.427
0.203,-0.394,0.901,3.723,-2.319,-0.488
0.206,-0.391,0.887,4.211,-2.930,-1.038
0.211,-0.394,0.881,4.944,-3.967,-1.953
0.211,-0.416,0.913,5.127,-5.554,-3.174
0.206,-0.438,0.928,5.127,-6.592,-3.601
0.204,-0.444,0.954,4.822,-6.470,-3.052
0.201,-0.466,0.964,4.150,-5.554,-2.075
0.197,-0.454,0.948,4.150,-3.662,-0.061
0.197,-0.423,0.937,4.883,-2.075,2.441
0.200,-0.411,0.913,4.395,-1.465,2.563
0.201,-0.404,0.905,4.211,-2.380,1.526
0.198,-0.402,0.902,4.578,-3.906,0.122
0.199,-0.407,0.903,5.188,-5.371,-1.160
0.200,-0.419,0.907,5.249,-7.263,-2.502
0.197,-0.419,0.909,5.798,-9.155,-3.174
0.189,-0.433,0.936,6.287,-10.925,-3.784
0.180,-0.456,0.951,5.920,-11.475,-4.272
0.173,-0.451,0.966,5.554,-10.437,-3.052
0.169,-0.445,0.958,5.493,-7.996,-1.404
0.164,-0.439,0.946,4.944,-5.493,-0.061
0.164,-0.427,0.932,4.517,-3.540,1.343
0.168,-0.417,0.919,4.517,-2.197,2.075
0.170,-0.404,0.911,4.822,-2.075,1.709
0.169,-0.408,0.924,4.883,-3.113,0.488
0.170,-0.419,0.938,4.578,-3.601,-0.977
0.175,-0.441,0.942,4.883,-3.662,-1.892
0.175,-0.446,0.942,5.310,-3.357,-1.648
0.176,-0.435,0.953,5.127,-3.296,-0.732
0.177,-0.434,0.936,4.761,-2.502,-0.549
0.184,-0.439,0.935,4.333,-2.014,-0.427
0.183,-0.435,0.931,3.540,-2.075,-0.183
0.183,-0.441,0.936,2.747,-2.380,-0.122
0.184,-0.436,0.950,2.197,-3.113,-0.366
0.181,-0.431,0.954,2.197,-2.991,-0.305
0.181,-0.442,0.955,2.136,-2.747,-0.610
0.181,-0.440,0.948,1.953,-2.014,-0.122
0.180,-0.432,0.939,2.075,-1.648,0.305
0.183,-0.419,0.935,2.502,-1.465,0.793
0.184,-0.422,0.917,2.991,-0.977,0.488
0.182,-0.429,0.923,3.052,-1.770,-0.061
0.178,-0.432,0.927,2.930,-2.930,-0.366
0.176,-0.432,0.938,2.747,-3.235,-0.610
0.176,-0.430,0.940,2.686,-3.418,-0.671
0.176,-0.444,0.938,2.136,-3.479,-1.282
0.178,-0.437,0.942,1.343,-3.784,-1.282
0.179,-0.425,0.942,1.404,-3.723,-1.160
0.183,-0.432,0.937,1.526,-3.540,-1.282

-0.820,-1.081,1.360,141.907,-235.779,-162.659
-0.783,-1.201,1.423,134.033,-189.392,-139.282
-0.713,-1.275,1.438,117.798,-139.282,-109.863
-0.649,-1.267,1.389,91.797,-89.661,-76.660
-0.573,-1.220,1.231,69.092,-43.518,-44.250
-0.545,-1.142,1.141,46.753,-12.390,-16.174
-0.482,-1.029,1.111,30.212,8.850,5.737
-0.444,-0.945,0.980,17.029,25.269,22.400
-0.469,-0.910,0.931,8.301,34.119,31.128
-0.508,-0.912,1.018,-1.770,35.461,36.377
-0.546,-0.961,1.064,-14.343,42.603,40.222
-0.555,-1.042,1.261,-32.349,54.932,46.692
-0.578,-1.129,1.347,-50.354,76.965,56.702
-0.586,-1.182,1.383,-66.040,107.483,73.486
-0.604,-1.163,1.325,-79.712,140.137,95.093
-0.587,-1.090,1.140,-89.966,173.889,118.469
-0.551,-0.928,0.983,-95.337,198.914,139.221
-0.500,-0.749,0.839,-101.563,213.013,152.283
-0.437,-0.635,0.690,-105.957,217.102,152.405
-0.382,-0.513,0.648,-109.009,210.693,145.020
-0.313,-0.449,0.677,-110.107,197.693,132.385
-0.244,-0.445,0.677,-109.375,186.951,116.333
-0.182,-0.417,0.672,-105.835,177.307,102.539
-0.106,-0.387,0.692,-97.168,168.640,91.797
-0.031,-0.334,0.627,-86.853,161.743,81.543
0.055,-0.303,0.578,-80.811,149.841,71.167
0.141,-0.289,0.592,-73.364,131.409,58.838
0.194,-0.299,0.612,-66.528,112.732,46.753
0.233,-0.322,0.659,-62.744,94.360,35.767
0.248,-0.388,0.738,-57.007,77.026,25.269
0.248,-0.422,0.749,-49.622,65.674,20.386
0.259,-0.392,0.734,-41.687,56.396,21.423
0.256,-0.380,0.734,-34.912,47.119,21.179
0.261,-0.378,0.757,-27.588,38.330,20.081
0.247,-0.344,0.741,-21.545,32.593,19.775
0.243,-0.333,0.771,-18.311,25.452,17.700
0.238,-0.315,0.766,-15.198,19.958,14.343
0.230,-0.348,0.749,-10.376,15.015,10.681
0.227,-0.358,0.789,-4.761,7.568,8.240
0.227,-0.371,0.801,-0.854,2.686,6.287
0.224,-0.382,0.819,1.648,-2.075,3.723
0.220,-0.396,0.834,3.418,-5.493,2.441
0.206,-0.385,0.843,4.517,-8.179,1.648
0.196,-0.373,0.858,5.188,-9.583,1.282
0.196,-0.395,0.857,5.371,-10.681,-0.549
0.190,-0.423,0.876,5.249,-11.963,-2.136
0.177,-0.414,0.897,5.371,-12.573,-2.136
0.177,-0.402,0.893,5.737,-11.597,-1.709
0.176,-0.408,0.880,5.615,-10.376,-2.197
0.175,-0.396,0.875,6.226,-9.583,-2.319
0.177,-0.395,0.875,6.653,-9.033,-2.747
0.178,-0.404,0.879,6.653,-9.033,-3.845
0.172,-0.433,0.905,6.226,-9.705,-5.249
0.169,-0.449,0.925,6.287,-8.484,-5.066
0.176,-0.433,0.919,5.737,-6.104,-3.174
0.186,-0.418,0.896,5.310,-3.662,-1.648
0.192,-0.426,0.872,5.371,-2.991,-1.648
0.194,-0.427,0.873,5.859,-3.723,-1.404
0.196,-0.422,0.893,5.554,-4.578,-1.404
0.196,-0.436,0.922,4.211,-4.883,-1.770
0.195,-0.453,0.900,3.662,-4.333,-1.831
0.191,-0.439,0.904,3.662,-4.211,-0.427
0.185,-0.419,0.900,4.211,-4.150,0.610
0.183,-0.427,0.899,4.395,-3.906,0.366
0.184,-0.418,0.914,3.479,-3.967,0.122
0.184,-0.423,0.903,3.235,-3.113,0.122
0.184,-0.425,0.895,3.784,-2.991,-0.244
0.181,-0.428,0.898,4.395,-3.723,-0.488
0.178,-0.443,0.928,4.761,-4.272,-1.343
0.187,-0.457,0.943,4.395,-4.211,-1.526
0.187,-0.459,0.950,4.089,-3.296,-0.916
0.185,-0.458,0.935,4.395,-1.709,0.244
0.180,-0.466,0.940,4.150,-1.160,1.160
0.176,-0.489,0.961,2.502,-1.709,1.099
0.176,-0.488,0.966,0.244,-1.343,1.526
0.184,-0.462,0.956,-0.854,-0.305,2.869
0.188,-0.442,0.923,-0.793,0.427,3.784
0.191,-0.418,0.896,-0.427,0.061,3.845
0.193,-0.412,0.888,0.244,-2.014,2.747
0.194,-0.411,0.899,1.526,-3.906,1.526
0.193,-0.401,0.930,2.747,-4.089,1.526
0.188,-0.431,0.902,4.089,-2.808,0.732
0.181,-0.431,0.912,4.944,-3.052,0.916
0.174,-0.426,0.931,6.104,-4.150,1.221
0.168,-0.445,0.928,6.165,-4.395,0.183
0.169,-0.462,0.936,5.066,-4.395,-0.732
0.178,-0.455,0.941,4.883,-4.333,-0.244
0.179,-0.455,0.935,4.700,-4.272,0.183
0.176,-0.465,0.935,4.150,-4.272,0.061
0.173,-0.458,0.934,3.540,-4.333,0.549
0.172,-0.436,0.954,3.479,-4.333,1.282
0.167,-0.434,0.924,3.967,-3.174,1.343
0.164,-0.437,0.918,4.089,-2.563,0.732
0.162,-0.434,0.929,4.089,-3.479,0.305
0.164,-0.430,0.914,4.395,-3.235,-0.366
0.176,-0.424,0.933,4.822,-3.296,-0.793
0.179,-0.453,0.915,5.005,-2.441,-1.648
0.179,-0.453,0.918,4.822,-2.197,-1.282
0.181,-0.446,0.926,4.456,-2.686,-0.488
0.185,-0.450,0.924,3.967,-2.686,-0.610
0.189,-0.454,0.928,3.357,-3.113,-0.488
0.190,-0.463,0.925,3.601,-3.357,-0.488
0.181,-0.459,0.930,3.906,-3.784,0.244
0.174,-0.447,0.936,4.211,-3.845,0.916
0.171,-0.440,0.936,4.456,-3.479,1.099
0.171,-0.439,0.929,4.395,-2.991,0.977
0.174,-0.449,0.924,3.967,-2.991,0.122
0.175,-0.451,0.931,3.845,-3.540,-0.122
0.169,-0.454,0.936,3.296,-3.357,0.244
0.169,-0.458,0.926,2.747,-2.808,0.305
0.166,-0.452,0.925,3.113,-2.441,0.793
0.162,-0.445,0.916,3.540,-2.136,1.160
0.165,-0.443,0.916,3.296,-2.136,0.732
0.167,-0.444,0.923,2.869,-2.869,0.061
0.170,-0.451,0.925,3.174,-2.869,-0.183
0.173,-0.456,0.921,3.479,-2.502,-0.122
0.172,-0.450,0.920,3.235,-2.380,0.244
0.171,-0.452,0.925,2.930,-2.563,0.427
0.172,-0.461,0.933,2.563,-2.625,0.122

-0.944,-1.006,1.064,194.458,-245.483,-149.780
-0.925,-1.095,1.148,183.044,-207.397,-135.376
-0.911,-1.082,1.069,165.100,-162.842,-117.371
-0.844,-1.098,1.107,133.911,-119.385,-98.755
-0.793,-1.201,1.223,91.125,-81.665,-83.252
-0.756,-1.275,1.192,59.387,-38.879,-63.965
-0.714,-1.297,1.157,35.583,-1.526,-38.147
-0.660,-1.246,1.048,17.151,30.396,-10.803
-0.595,-1.148,0.952,2.930,54.993,14.709
-0.562,-1.048,0.959,-8.789,70.251,34.912
-0.558,-1.028,0.989,-20.325,82.886,47.729
-0.554,-1.068,0.989,-33.569,97.290,57.983
-0.539,-1.137,0.965,-47.363,112.122,68.848
-0.531,-1.111,1.027,-61.462,123.535,83.679
-0.551,-1.074,1.067,-75.439,137.878,99.304
-0.544,-1.054,1.051,-88.623,156.921,112.671
-0.509,-0.954,0.943,-98.511,175.903,125.916
-0.459,-0.855,0.829,-106.018,189.575,133.057
-0.433,-0.797,0.772,-111.877,196.045,133.423
-0.413,-0.690,0.694,-110.168,198.425,134.827
-0.371,-0.577,0.651,-108.032,195.740,133.362
-0.330,-0.517,0.647,-105.042,189.514,124.756
-0.266,-0.471,0.635,-101.440,184.082,114.929
-0.203,-0.449,0.634,-102.112,177.917,105.469
-0.112,-0.410,0.624,-104.919,170.227,94.971
-0.022,-0.427,0.656,-105.347,158.325,79.956
0.044,-0.446,0.688,-102.356,143.738,65.002
0.114,-0.460,0.685,-93.018,129.456,53.955
0.166,-0.470,0.715,-82.153,113.281,44.739
0.187,-0.495,0.761,-71.228,98.145,37.537
0.203,-0.500,0.759,-62.134,87.952,34.546
0.216,-0.479,0.770,-54.688,79.102,34.790
0.223,-0.479,0.789,-48.889,71.167,34.546
0.224,-0.477,0.794,-44.250,65.369,34.302
0.223,-0.447,0.752,-37.842,59.937,34.546
0.237,-0.393,0.755,-32.410,52.979,34.546
0.249,-0.358,0.731,-25.513,45.837,32.410
0.271,-0.344,0.710,-19.714,38.879,28.625
0.279,-0.376,0.750,-17.761,29.602,22.705
0.270,-0.429,0.810,-16.785,21.362,17.395
0.263,-0.452,0.842,-15.015,16.968,16.052
0.259,-0.455,0.863,-12.939,15.381,17.273
0.249,-0.428,0.817,-9.155,15.991,19.470
0.243,-0.383,0.838,-6.531,14.832,21.362
0.244,-0.370,0.815,-4.761,13.611,20.264
0.243,-0.374,0.790,-2.808,12.207,17.517
0.244,-0.377,0.794,0.305,7.507,14.587
0.247,-0.374,0.777,2.686,3.723,12.329
0.250,-0.376,0.801,3.357,-1.221,9.521
0.247,-0.406,0.832,3.723,-5.066,6.592
0.237,-0.439,0.864,4.211,-7.202,4.639
0.223,-0.468,0.921,3.235,-8.179,3.906
0.213,-0.473,0.944,1.770,-6.714,4.639
0.207,-0.475,0.930,0.366,-3.601,6.042
0.210,-0.460,0.901,-0.122,-0.183,7.812
0.216,-0.423,0.868,0.122,2.319,9.949
0.220,-0.396,0.834,0.183,2.991,10.254
0.221,-0.384,0.835,0.549,1.099,8.667
0.212,-0.404,0.852,0.793,-1.282,5.737
0.205,-0.407,0.871,1.587,-2.747,3.845
0.206,-0.415,0.876,2.502,-3.052,2.625
0.208,-0.433,0.877,2.136,-2.319,1.709
0.213,-0.435,0.882,1.282,-1.221,1.892
0.227,-0.424,0.867,1.343,0.000,2.869
0.237,-0.404,0.844,1.587,0.366,3.235
0.244,-0.397,0.834,1.831,-1.038,2.869
0.236,-0.412,0.848,1.648,-2.930,1.343
0.228,-0.415,0.879,1.892,-4.272,0.488
0.225,-0.433,0.898,2.502,-4.211,0.000
0.225,-0.453,0.904,2.258,-3.357,-0.427
0.234,-0.432,0.899,1.648,-2.136,0.305
0.243,-0.420,0.894,1.953,-1.404,0.610
0.248,-0.422,0.869,2.686,-1.221,-0.183
0.245,-0.433,0.883,3.296,-2.991,-1.465
0.237,-0.438,0.901,3.540,-4.211,-2.258
0.231,-0.441,0.918,3.723,-4.333,-2.625
0.229,-0.447,0.915,4.211,-3.540,-2.502
0.236,-0.457,0.914,4.395,-2.380,-2.441
0.249,-0.470,0.914,3.784,-1.953,-2.258
0.258,-0.470,0.928,2.869,-2.319,-1.587
0.258,-0.461,0.928,2.502,-1.709,-0.122
0.256,-0.456,0.896,2.747,-0.610,0.977
0.255,-0.440,0.888,3.723,-1.221,1.831
0.246,-0.430,0.887,4.700,-2.563,1.953
0.237,-0.441,0.899,5.310,-3.845,0.854
0.232,-0.448,0.942,4.883,-4.883,0.000
0.233,-0.465,0.919,5.249,-4.395,-0.488
0.231,-0.463,0.915,5.310,-4.150,-0.244
0.229,-0.448,0.921,5.371,-4.639,0.549
0.225,-0.448,0.911,5.920,-5.005,-0.122
0.229,-0.455,0.913,5.676,-6.226,-1.343
0.228,-0.467,0.955,4.517,-7.080,-1.709
0.221,-0.496,0.961,3.418,-5.676,-1.587
0.221,-0.490,0.943,2.808,-4.211,-0.427
0.222,-0.457,0.921,2.136,-3.479,1.526
0.223,-0.433,0.893,2.625,-3.479,1.892
0.224,-0.424,0.886,3.479,-4.456,0.549
0.220,-0.450,0.913,3.479,-6.287,-1.526
0.208,-0.483,0.986,2.625,-6.714,-2.502
0.209,-0.491,0.969,2.625,-3.113,-0.610
0.216,-0.475,0.938,2.075,0.671,1.526
0.220,-0.449,0.919,1.526,1.526,2.930
0.224,-0.427,0.886,2.136,1.587,2.563
0.233,-0.437,0.867,3.113,-0.549,1.038
0.241,-0.450,0.883,4.883,-3.235,-0.427
0.231,-0.432,0.941,3.418,-4.883,-0.610
0.225,-0.505,0.943,2.380,-4.639,-2.502
0.226,-0.478,0.921,3.540,-2.930,-0.061
0.222,-0.453,0.920,3.418,-3.052,1.831
0.221,-0.441,0.910,3.723,-3.174,1.404
0.222,-0.442,0.903,3.357,-3.845,0.244
0.216,-0.437,0.919,2.563,-4.395,-0.977
0.214,-0.452,0.908,3.052,-4.089,-1.404
0.214,-0.452,0.897,3.662,-3.479,-1.648
0.215,-0.452,0.916,3.296,-3.784,-1.404
0.224,-0.485,0.918,1.892,-3.601,-2.319
0.230,-0.491,0.938,0.671,-3.845,-1.770
0.231,-0.478,0.914,0.854,-2.930,-0.061
0.230,-0.455,0.904,1.343,-2.441,1.770

-0.794,-1.133,1.165,160.095,-241.821,-196.655
-0.765,-1.306,1.294,139.709,-210.876,-180.603
-0.722,-1.396,1.379,116.516,-170.654,-153.381
-0.651,-1.401,1.292,96.130,-124.695,-118.774
-0.591,-1.392,1.278,78.064,-81.421,-82.153
-0.571,-1.346,1.220,58.472,-45.227,-46.936
-0.544,-1.246,1.115,41.809,-11.353,-13.977
-0.531,-1.136,0.996,26.550,14.587,13.428
-0.524,-1.017,0.919,12.939,32.349,33.813
-0.525,-0.972,0.979,0.366,42.480,46.448
-0.551,-1.039,1.059,-16.479,52.551,52.795
-0.575,-1.263,1.246,-39.368,66.772,58.960
-0.607,-1.370,1.369,-60.059,91.492,77.942
-0.644,-1.377,1.359,-76.599,127.136,107.300
-0.662,-1.299,1.247,-91.492,166.138,139.404
-0.651,-1.145,1.053,-102.539,199.585,167.969
-0.610,-0.980,0.892,-113.098,222.290,187.134
-0.569,-0.805,0.802,-122.192,233.398,196.289
-0.520,-0.701,0.769,-129.517,237.793,194.641
-0.447,-0.630,0.655,-128.418,240.356,183.228
-0.366,-0.539,0.548,-124.329,235.962,171.265
-0.269,-0.397,0.458,-119.019,224.976,161.804
-0.151,-0.279,0.416,-110.107,205.322,144.958
-0.049,-0.198,0.402,-100.708,179.687,121.216
0.055,-0.148,0.418,-89.600,152.405,95.947
0.159,-0.151,0.457,-78.979,125.183,69.214
0.221,-0.221,0.534,-71.594,98.816,43.030
0.249,-0.353,0.639,-62.866,74.707,22.034
0.261,-0.458,0.721,-52.063,57.495,10.864
0.254,-0.512,0.781,-43.274,48.401,8.301
0.253,-0.530,0.823,-36.255,44.373,10.925
0.257,-0.518,0.835,-31.677,44.128,16.541
0.251,-0.521,0.819,-28.931,44.312,20.264
0.250,-0.495,0.804,-25.940,42.297,22.827
0.245,-0.468,0.755,-21.790,38.452,23.743
0.240,-0.414,0.750,-19.226,32.104,23.315
0.240,-0.406,0.765,-16.541,24.658,19.775
0.237,-0.396,0.753,-13.367,19.592,15.137
0.236,-0.410,0.799,-11.108,12.573,10.376
0.243,-0.422,0.780,-7.874,8.484,6.836
0.259,-0.430,0.778,-4.578,4.883,4.639
0.268,-0.443,0.787,-1.831,0.427,3.357
0.262,-0.458,0.812,-2.686,-2.686,2.686
0.261,-0.470,0.814,-3.784,-4.028,2.563
0.255,-0.464,0.810,-3.540,-4.639,4.211
0.241,-0.458,0.838,-3.784,-6.287,5.188
0.218,-0.463,0.844,-3.967,-7.080,5.127
0.202,-0.456,0.840,-3.418,-5.859,5.920
0.193,-0.434,0.839,-2.258,-4.578,7.019
0.184,-0.432,0.835,-2.136,-3.723,6.287
0.189,-0.416,0.809,-1.770,-2.625,5.432
0.199,-0.388,0.795,-0.183,-2.319,4.456
0.205,-0.380,0.781,1.892,-3.113,2.258
0.211,-0.397,0.792,3.296,-4.700,-1.343
0.206,-0.417,0.823,4.272,-6.714,-4.272
0.204,-0.438,0.849,5.249,-6.958,-5.554
0.208,-0.467,0.864,5.859,-6.104,-6.042
0.217,-0.480,0.869,4.944,-4.456,-5.737
0.231,-0.494,0.880,3.479,-3.235,-4.700
0.240,-0.496,0.870,2.686,-1.587,-3.235
0.242,-0.476,0.867,2.014,-1.038,-1.404
0.241,-0.462,0.866,2.136,-0.977,-0.183
0.243,-0.454,0.855,2.197,-0.916,-0.183
0.246,-0.460,0.870,2.808,-2.075,-0.549
0.241,-0.476,0.868,3.723,-2.136,-0.854
0.233,-0.472,0.877,4.822,-1.953,0.061
0.226,-0.481,0.897,5.066,-2.441,0.122
0.227,-0.507,0.894,4.272,-1.953,-0.549
0.230,-0.511,0.892,3.052,-1.831,-0.427
0.235,-0.483,0.879,2.563,-2.380,0.916
0.240,-0.470,0.864,2.319,-2.686,1.587
0.233,-0.476,0.882,1.099,-3.723,1.160
0.222,-0.485,0.894,0.427,-4.395,0.916
0.215,-0.488,0.905,0.427,-4.639,0.854
0.207,-0.461,0.914,0.549,-4.333,1.770
0.201,-0.461,0.907,0.793,-2.991,1.709
0.206,-0.474,0.885,1.160,-1.343,0.854
0.208,-0.466,0.890,1.831,-1.709,0.427
0.207,-0.457,0.906,2.441,-2.930,-0.122
0.207,-0.474,0.922,2.380,-2.808,-1.709
0.211,-0.495,0.929,1.892,-2.014,-2.563
0.216,-0.496,0.938,1.404,-1.221,-2.014
0.220,-0.488,0.932,1.099,-0.793,-1.526
0.228,-0.477,0.925,1.099,-0.427,-1.465
0.236,-0.479,0.905,1.282,-0.305,-1.892
0.240,-0.470,0.898,1.465,-1.343,-1.648
0.239,-0.464,0.888,2.625,-2.869,-1.526
0.234,-0.453,0.898,3.784,-3.845,-1.648
0.229,-0.463,0.912,4.089,-4.211,-2.502
0.226,-0.475,0.919,3.845,-4.089,-3.479
0.229,-0.466,0.921,4.028,-3.967,-3.296
0.231,-0.477,0.923,3.967,-3.479,-3.601
0.232,-0.500,0.927,3.052,-3.174,-4.028
0.240,-0.492,0.931,2.502,-3.357,-3.113
0.245,-0.486,0.925,2.014,-3.662,-2.441
0.249,-0.478,0.918,1.282,-4.211,-2.441
0.239,-0.488,0.924,0.793,-5.066,-2.625
0.239,-0.500,0.940,0.549,-5.310,-2.258
0.231,-0.494,0.958,0.793,-4.883,-1.160
0.231,-0.486,0.948,0.977,-3.723,0.061
0.236,-0.483,0.935,1.343,-2.441,0.671
0.241,-0.487,0.925,1.160,-2.197,0.854
0.246,-0.478,0.932,0.549,-2.686,0.977
0.251,-0.479,0.923,-0.854,-3.052,1.099
0.253,-0.482,0.906,-1.465,-3.296,1.038
0.247,-0.483,0.895,-1.648,-4.028,1.526
0.240,-0.472,0.896,-1.160,-4.456,2.686
0.229,-0.463,0.893,-1.221,-4.639,3.662
0.220,-0.469,0.897,-1.404,-4.456,3.967
0.217,-0.464,0.899,-1.770,-4.456,4.395
0.214,-0.466,0.894,-1.831,-4.883,4.150
0.206,-0.473,0.897,-1.587,-5.737,3.845
0.201,-0.464,0.887,-0.854,-5.798,4.150
0.194,-0.453,0.886,-0.122,-5.798,4.333
0.190,-0.443,0.884,0.732,-5.310,4.150
0.187,-0.437,0.876,1.709,-4.395,4.150
0.187,-0.440,0.878,2.136,-3.906,3.601
0.192,-0.459,0.883,2.380,-3.601,2.197
0.193,-0.477,0.892,1.770,-3.967,1.282

-0.657,-1.011,1.546,106.323,-198.303,-108.093
-0.653,-1.075,1.622,94.849,-141.479,-82.703
-0.566,-1.053,1.643,80.322,-81.970,-53.711
-0.487,-1.107,1.565,67.383,-27.161,-30.884
-0.367,-1.016,1.360,55.054,16.357,-8.240
-0.297,-0.936,1.156,37.292,42.786,8.301
-0.250,-0.877,1.076,21.057,49.866,16.174
-0.228,-0.840,1.058,7.263,44.434,18.738
-0.238,-0.844,1.057,-3.967,35.095,17.700
-0.268,-0.858,1.081,-11.353,25.635,17.212
-0.301,-0.846,1.111,-17.029,21.362,19.348
-0.315,-0.800,1.152,-22.583,23.254,24.048
-0.320,-0.781,1.183,-27.649,30.029,27.771
-0.310,-0.803,1.173,-34.302,41.138,31.128
-0.291,-0.789,1.157,-41.199,54.443,36.743
-0.268,-0.741,1.100,-48.462,68.787,44.373
-0.242,-0.708,1.098,-52.917,80.750,50.598
-0.213,-0.700,0.967,-56.335,91.675,55.664
-0.189,-0.643,0.939,-59.814,96.313,61.096
-0.211,-0.624,0.971,-62.927,96.069,63.965
-0.221,-0.592,0.972,-63.477,99.670,67.017
-0.214,-0.588,0.958,-65.186,105.347,68.787
-0.221,-0.576,1.003,-70.862,109.314,69.641
-0.223,-0.551,1.070,-74.951,111.877,70.374
-0.219,-0.549,1.081,-76.843,117.554,70.068
-0.182,-0.345,1.096,-72.510,123.230,67.322
-0.188,-0.552,1.163,-64.148,126.404,51.270
-0.161,-0.558,1.129,-71.167,134.583,49.438
-0.115,-0.510,1.063,-75.317,140.991,54.749
-0.062,-0.492,0.964,-73.853,141.113,53.894
-0.001,-0.426,0.927,-72.754,135.559,51.941
0.046,-0.387,0.863,-69.397,126.709,49.255
0.103,-0.340,0.782,-66.162,117.432,46.570
0.164,-0.258,0.764,-63.538,104.736,43.579
0.201,-0.233,0.785,-61.523,92.346,37.231
0.239,-0.227,0.773,-58.472,83.374,30.457
0.280,-0.229,0.742,-54.810,75.623,25.208
0.320,-0.219,0.739,-52.490,67.017,21.790
0.347,-0.224,0.730,-51.819,59.265,18.921
0.378,-0.228,0.715,-50.781,52.124,16.846
0.406,-0.220,0.706,-47.729,44.678,16.418
0.407,-0.214,0.699,-44.067,36.987,15.747
0.402,-0.202,0.729,-38.269,28.687,16.479
0.403,-0.174,0.711,-31.372,22.278,17.273
0.402,-0.182,0.719,-26.917,14.954,15.564
0.388,-0.208,0.759,-24.902,7.141,13.123
0.376,-0.243,0.777,-23.560,1.526,11.963
0.372,-0.239,0.812,-19.958,-4.333,12.695
0.365,-0.260,0.859,-17.700,-9.583,13.000
0.347,-0.279,0.888,-15.869,-13.184,13.000
0.332,-0.270,0.895,-12.512,-14.771,15.137
0.322,-0.261,0.886,-8.972,-14.221,17.517
0.315,-0.247,0.860,-4.517,-13.062,20.020
0.300,-0.231,0.848,-2.319,-13.428,21.606
0.282,-0.196,0.842,0.366,-15.564,21.362
0.265,-0.183,0.868,3.784,-18.066,19.958
0.244,-0.223,0.884,6.592,-20.020,16.663
0.224,-0.232,0.929,8.484,-21.423,14.771
0.215,-0.236,0.959,9.033,-21.179,13.733
0.208,-0.250,0.972,9.521,-18.921,12.207
0.205,-0.243,0.978,10.925,-16.113,11.963
0.214,-0.234,0.952,11.902,-13.123,11.963
0.226,-0.244,0.944,11.047,-12.085,11.108
0.226,-0.253,0.959,10.620,-13.733,10.071
0.219,-0.232,0.979,12.146,-14.832,10.132
0.208,-0.228,0.937,12.878,-14.282,9.583
0.197,-0.240,0.983,11.536,-15.198,8.301
0.201,-0.269,1.001,10.681,-15.381,7.080
0.204,-0.287,1.025,9.888,-13.672,6.592
0.207,-0.293,1.029,10.620,-11.963,8.118
0.194,-0.240,0.984,9.888,-7.690,9.644
0.198,-0.246,1.005,7.751,-7.446,7.690
0.202,-0.256,0.974,6.836,-5.493,5.859
0.214,-0.297,0.991,8.057,-4.395,4.883
0.213,-0.269,0.945,9.705,-4.333,5.310
0.216,-0.257,0.984,8.667,-5.676,4.761
0.217,-0.292,0.991,8.423,-6.958,2.197
0.220,-0.296,0.991,8.667,-5.493,1.343
0.229,-0.316,0.989,10.315,-4.456,1.953
0.239,-0.303,0.949,10.437,-2.808,3.174
0.243,-0.311,0.972,9.521,-3.540,3.967
0.243,-0.319,0.965,8.789,-3.906,4.211
0.238,-0.304,0.965,8.606,-4.456,4.883
0.234,-0.294,0.979,9.705,-5.127,5.310
0.230,-0.302,0.965,10.803,-4.944,4.822
0.228,-0.284,0.955,12.512,-5.127,5.005
0.232,-0.288,0.968,12.939,-6.409,4.578
0.224,-0.292,0.952,12.451,-7.263,3.357
0.223,-0.298,0.977,13.062,-9.216,2.563
0.228,-0.309,0.979,12.939,-10.132,2.197
0.233,-0.285,0.968,11.963,-10.132,2.319
0.243,-0.296,0.989,10.986,-10.803,2.197
0.246,-0.311,0.972,11.780,-8.850,3.357
0.235,-0.287,0.931,14.282,-6.165,6.348
0.233,-0.300,0.958,16.541,-6.714,7.996
0.219,-0.266,0.922,18.494,-6.836,8.911
0.207,-0.245,0.965,17.517,-9.338,8.057
0.213,-0.237,1.010,19.897,-11.414,4.395
0.188,-0.323,0.984,39.795,-11.902,-0.366
0.189,-0.323,0.942,33.264,-10.132,-2.319
0.181,-0.286,0.969,28.625,-10.498,1.221
0.195,-0.292,0.972,31.555,-11.597,1.099
0.203,-0.280,0.973,31.250,-10.498,-0.366
0.196,-0.307,0.998,24.231,-10.559,-3.113
0.190,-0.393,0.975,19.104,-9.705,-6.226
0.194,-0.369,1.029,18.677,-11.963,-4.883
0.197,-0.376,1.020,19.836,-10.376,-3.662
0.188,-0.359,0.978,18.127,-7.263,-2.502
0.190,-0.344,0.982,15.076,-6.042,-1.648
0.202,-0.318,0.991,11.719,-6.104,-0.671
0.209,-0.363,0.964,10.437,-4.395,-1.709
0.214,-0.342,0.952,10.803,-4.517,-1.221
0.197,-0.344,0.929,10.071,-5.493,-0.916
0.198,-0.344,0.940,10.620,-7.324,-1.770
0.194,-0.346,0.954,10.986,-9.705,-2.197
0.186,-0.381,0.956,10.376,-10.132,-3.540
0.181,-0.374,0.995,8.789,-11.658,-3.235
0.180,-0.371,0.982,7.446,-10.010,-2.319
0.178,-0.377,0.981,5.920,-7.690,-1.709

-0.195,-1.150,1.492,7.263,-23.682,-21.912
-0.227,-1.109,1.505,-4.395,-8.972,-4.517
-0.252,-1.038,1.456,-11.719,9.399,14.160
-0.262,-0.924,1.368,-19.958,30.090,31.799
-0.281,-0.863,1.290,-31.372,49.072,44.312
-0.301,-0.818,1.236,-41.016,65.002,52.307
-0.300,-0.734,1.188,-48.645,78.613,59.204
-0.294,-0.696,1.131,-53.528,89.417,62.195
-0.283,-0.603,1.045,-54.626,99.487,63.965
-0.241,-0.533,1.019,-58.533,105.225,63.843
-0.216,-0.514,0.961,-62.683,110.229,59.875
-0.181,-0.519,0.915,-63.293,112.732,55.725
-0.118,-0.513,0.939,-67.810,109.985,52.551
-0.093,-0.521,1.001,-75.317,107.727,48.340
-0.087,-0.532,0.981,-77.881,108.215,45.410
-0.029,-0.466,0.999,-75.256,108.643,45.105
-0.004,-0.429,1.021,-70.557,108.887,38.757
0.007,-0.555,0.969,-67.810,112.061,28.137
0.042,-0.493,0.940,-68.726,110.474,34.302
0.078,-0.431,0.894,-65.430,107.605,39.917
0.096,-0.392,0.856,-58.716,102.356,39.429
0.125,-0.339,0.811,-53.589,96.436,37.659
0.160,-0.275,0.817,-50.781,88.501,34.302
0.189,-0.281,0.815,-50.293,79.956,26.123
0.190,-0.340,0.836,-48.950,73.303,17.273
0.210,-0.339,0.863,-45.837,65.796,14.282
0.232,-0.348,0.833,-43.091,62.500,12.695
0.251,-0.345,0.810,-40.955,58.289,11.902
0.272,-0.321,0.768,-38.635,53.284,13.000
0.303,-0.286,0.739,-35.767,46.997,13.733
0.326,-0.265,0.725,-30.151,38.635,13.367
0.335,-0.229,0.687,-23.193,31.006,12.451
0.343,-0.216,0.686,-18.066,21.240,10.193
0.342,-0.215,0.696,-14.404,11.230,6.836
0.341,-0.224,0.715,-10.925,2.625,4.028
0.324,-0.241,0.728,-7.080,-3.906,2.380
0.300,-0.277,0.779,-3.479,-9.338,1.038
0.277,-0.286,0.823,0.183,-12.268,1.709
0.259,-0.274,0.842,3.479,-11.292,3.845
0.256,-0.251,0.814,7.629,-8.606,5.676
0.251,-0.264,0.792,10.010,-8.484,4.700
0.242,-0.265,0.827,10.742,-11.230,3.113
0.234,-0.287,0.855,12.268,-12.878,1.282
0.223,-0.307,0.847,14.221,-12.756,-0.244
0.218,-0.316,0.886,14.648,-14.038,-1.404
0.216,-0.344,0.922,13.794,-15.564,-3.296
0.219,-0.375,0.928,12.573,-15.442,-4.578
0.225,-0.372,0.934,11.902,-15.625,-3.967
0.226,-0.368,0.928,12.268,-15.259,-3.052
0.224,-0.365,0.927,13.000,-15.076,-1.831
0.216,-0.380,0.949,11.536,-15.564,-1.404
0.205,-0.365,0.967,9.521,-15.076,-0.793
0.203,-0.354,0.968,9.521,-13.245,0.610
0.201,-0.367,0.938,9.521,-10.315,1.038
0.197,-0.347,0.954,9.277,-9.583,1.831
0.197,-0.333,0.956,9.155,-8.545,2.441
0.200,-0.334,0.903,9.827,-7.019,1.709
0.195,-0.333,0.914,10.254,-8.118,1.038
0.186,-0.333,0.937,10.864,-9.277,0.610
0.185,-0.334,0.938,11.536,-8.667,0.305
0.186,-0.345,0.949,11.414,-7.935,-0.488
0.186,-0.380,0.960,9.460,-7.385,-1.587
0.180,-0.381,0.993,7.080,-7.385,-1.343
0.179,-0.364,0.994,6.165,-5.432,0.000
0.185,-0.363,0.956,5.615,-2.930,0.671
0.196,-0.353,0.939,5.005,-1.831,1.343
0.198,-0.346,0.945,4.456,-2.197,1.648
0.198,-0.343,0.940,4.578,-2.686,1.099
0.194,-0.327,0.939,4.639,-3.540,0.183
0.198,-0.340,0.953,4.700,-4.761,-1.648
0.201,-0.367,0.949,4.517,-4.822,-2.930
0.208,-0.379,0.977,4.089,-5.371,-3.052
0.214,-0.359,0.958,4.822,-4.395,-1.587
0.217,-0.352,0.947,5.310,-3.845,-0.671
0.217,-0.367,0.944,4.639,-4.089,-0.916
0.211,-0.387,0.968,3.418,-4.639,-0.854
0.204,-0.385,0.996,2.808,-4.639,0.122
0.196,-0.374,0.976,2.502,-2.869,1.648
0.192,-0.376,0.979,1.892,-1.892,2.075
0.192,-0.353,0.952,1.831,-0.183,2.869
0.195,-0.334,0.944,2.136,0.244,2.441
0.207,-0.326,0.933,2.197,-0.122,1.221
0.215,-0.342,0.921,2.869,-0.732,-0.427
0.217,-0.347,0.925,3.906,-1.953,-1.038
0.214,-0.351,0.933,4.211,-2.808,-0.916
0.213,-0.363,0.946,4.211,-3.296,-1.099
0.216,-0.380,0.954,3.845,-3.540,-1.038
0.217,-0.380,0.965,3.967,-3.662,-0.183
0.212,-0.359,0.959,4.150,-3.479,0.671
0.215,-0.370,0.966,4.211,-4.089,0.122
0.209,-0.366,0.952,4.089,-3.906,0.000
0.201,-0.368,0.981,4.822,-4.333,0.244
0.197,-0.381,0.972,5.188,-3.906,0.000
0.193,-0.394,0.989,4.456,-3.784,-0.305
0.191,-0.391,0.991,3.967,-3.601,0.122
0.190,-0.388,0.983,3.723,-2.441,0.610
0.193,-0.378,0.955,3.479,-1.160,1.465
0.195,-0.357,0.938,3.784,-0.977,2.075
0.196,-0.359,0.936,3.540,-2.136,1.221
0.194,-0.362,0.946,3.296,-3.540,0.061
0.192,-0.371,0.950,3.967,-4.211,-0.671
0.187,-0.369,0.953,4.272,-4.456,-1.343
0.187,-0.363,0.973,4.150,-4.700,-1.282
0.187,-0.374,0.970,4.028,-4.089,-1.770
0.190,-0.384,0.959,3.357,-2.991,-1.831
0.193,-0.374,0.967,3.235,-2.625,-1.282
0.199,-0.363,0.939,3.906,-1.465,-0.427
0.207,-0.369,0.928,3.723,-0.977,-0.305
0.209,-0.375,0.948,3.052,-2.441,-0.488
0.203,-0.380,0.953,3.662,-3.357,-0.549
0.196,-0.391,0.961,3.662,-3.723,-0.549
0.187,-0.388,0.973,2.808,-3.723,-0.183
0.182,-0.369,0.979,2.991,-2.808,0.854
0.186,-0.365,0.938,2.930,-0.916,0.854
0.190,-0.354,0.936,2.808,-0.916,0.671
0.190,-0.350,0.926,2.808,-2.014,0.183
0.193,-0.357,0.934,3.357,-3.113,-0.977
0.190,-0.373,0.949,3.601,-4.150,-1.953
0.184,-0.381,0.958,3.601,-4.272,-2.075

-0.724,-1.332,1.631,143.799,-232.422,-115.234
-0.762,-1.434,1.854,128.784,-177.979,-82.520
-0.738,-1.393,1.730,107.300,-105.164,-40.222
-0.690,-1.357,1.528,82.031,-37.842,-2.747
-0.600,-1.203,1.325,58.167,11.536,29.297
-0.549,-1.013,1.121,39.307,43.945,53.162
-0.520,-0.835,0.997,27.222,60.608,64.026
-0.494,-0.738,0.955,17.883,63.965,62.805
-0.487,-0.772,0.936,4.456,62.439,51.941
-0.488,-0.885,0.989,-14.465,56.946,37.720
-0.487,-0.887,1.095,-28.625,52.551,30.518
-0.470,-0.880,1.148,-39.368,56.458,27.466
-0.444,-0.915,1.166,-52.002,66.528,25.818
-0.401,-0.973,1.194,-64.392,77.332,27.527
-0.377,-0.993,1.216,-75.500,90.332,33.813
-0.355,-0.961,1.236,-87.402,106.140,44.617
-0.348,-0.913,1.190,-97.839,125.122,56.885
-0.331,-0.836,1.079,-101.990,145.142,69.458
-0.297,-0.754,0.959,-101.624,161.804,80.688
-0.233,-0.634,0.797,-99.731,173.218,88.501
-0.178,-0.490,0.724,-101.563,174.438,91.003
-0.138,-0.414,0.706,-104.858,167.603,84.045
-0.099,-0.316,0.719,-105.713,158.325,71.716
-0.057,-0.323,0.794,-98.083,149.414,55.176
-0.014,-0.393,0.773,-92.041,145.447,39.856
0.057,-0.389,0.729,-86.609,138.000,32.043
0.114,-0.388,0.807,-83.740,122.681,24.292
0.155,-0.398,0.822,-79.712,112.732,16.296
0.210,-0.382,0.801,-73.547,106.079,11.353
0.261,-0.380,0.776,-69.641,97.595,7.935
0.290,-0.424,0.766,-63.660,87.830,3.113
0.319,-0.399,0.768,-58.228,75.928,5.005
0.337,-0.363,0.744,-51.697,65.186,6.897
0.353,-0.332,0.722,-44.006,54.688,7.324
0.379,-0.312,0.724,-37.231,44.983,6.775
0.361,-0.341,0.752,-32.837,36.621,5.432
0.349,-0.336,0.842,-29.724,30.396,4.761
0.344,-0.346,0.818,-26.733,28.198,5.432
0.343,-0.369,0.840,-25.146,25.269,5.615
0.348,-0.353,0.804,-21.301,23.743,8.240
0.358,-0.306,0.772,-16.968,22.034,11.169
0.340,-0.306,0.719,-13.489,17.944,11.719
0.353,-0.271,0.726,-9.399,10.864,11.902
0.333,-0.271,0.741,-5.859,2.441,10.559
0.315,-0.265,0.756,-2.441,-3.845,8.118
0.299,-0.258,0.773,1.343,-8.606,6.531
0.279,-0.286,0.790,5.310,-11.902,4.395
0.257,-0.301,0.832,8.179,-14.526,3.174
0.242,-0.329,0.848,10.681,-15.625,1.831
0.237,-0.344,0.874,11.902,-16.724,1.221
0.229,-0.331,0.889,12.512,-16.663,0.977
0.234,-0.348,0.900,12.207,-15.930,-0.183
0.231,-0.372,0.905,11.536,-15.198,-1.648
0.233,-0.356,0.880,11.902,-14.404,-1.160
0.239,-0.340,0.867,12.939,-14.465,-0.427
0.235,-0.347,0.869,13.733,-15.015,-1.221
0.225,-0.362,0.883,14.282,-16.479,-1.953
0.214,-0.355,0.894,14.954,-17.883,-2.136
0.209,-0.358,0.904,15.198,-18.494,-2.625
0.201,-0.409,0.923,13.977,-19.104,-4.150
0.190,-0.439,0.991,10.620,-19.592,-4.639
0.182,-0.436,1.022,8.728,-17.334,-2.075
0.178,-0.426,0.972,8.179,-11.658,0.793
0.173,-0.393,0.945,7.324,-7.996,3.296
0.171,-0.353,0.925,7.324,-6.165,4.700
0.168,-0.360,0.919,6.531,-5.310,3.174
0.173,-0.374,0.934,4.333,-5.798,0.671
0.177,-0.359,0.970,3.723,-5.676,0.244
0.186,-0.377,0.927,4.272,-3.052,-0.610
0.193,-0.373,0.904,4.272,-1.831,-0.549
0.196,-0.354,0.915,4.883,-2.319,-0.122
0.199,-0.347,0.910,5.981,-2.563,-0.916
0.206,-0.380,0.922,5.920,-3.540,-3.052
0.207,-0.436,0.952,2.991,-4.639,-5.188
0.214,-0.418,1.001,0.427,-5.005,-4.089
0.226,-0.401,0.978,0.854,-2.197,-1.648
0.239,-0.420,0.934,1.465,1.282,-0.427
0.232,-0.398,0.929,0.916,1.648,1.770
0.229,-0.370,0.932,1.770,0.366,3.418
0.230,-0.354,0.913,2.808,-0.488,3.052
0.228,-0.349,0.936,3.540,-1.770,1.709
0.222,-0.361,0.914,4.272,-1.404,0.916
0.217,-0.374,0.936,5.981,-2.319,-0.061
0.217,-0.402,0.969,5.493,-3.723,-0.732
0.215,-0.414,0.986,3.601,-3.784,-1.465
0.220,-0.415,0.982,3.418,-2.869,-0.793
0.230,-0.397,0.946,4.639,-1.221,0.854
0.228,-0.387,0.936,5.249,-1.038,1.953
0.224,-0.391,0.936,5.005,-2.197,1.709
0.221,-0.385,0.945,5.127,-3.723,1.404
0.212,-0.379,0.959,5.066,-4.333,1.038
0.206,-0.386,0.952,5.493,-4.150,0.488
0.206,-0.396,0.957,5.676,-4.089,0.061
0.210,-0.405,0.956,5.554,-4.089,-0.305
0.215,-0.419,0.997,4.578,-4.517,-0.610
0.217,-0.428,0.989,3.784,-3.906,-0.305
0.216,-0.425,0.974,3.723,-2.869,0.916
0.212,-0.414,0.972,3.540,-2.869,1.953
0.208,-0.401,0.963,2.991,-2.380,2.563
0.207,-0.401,0.970,3.113,-2.563,2.441
0.205,-0.397,0.955,2.930,-2.197,2.319
0.203,-0.385,0.946,3.052,-2.197,2.136
0.205,-0.382,0.948,3.296,-2.930,1.587
0.206,-0.382,0.937,3.235,-2.686,0.793
0.212,-0.378,0.930,3.418,-2.991,0.305
0.213,-0.387,0.928,3.662,-3.479,0.000
0.210,-0.393,0.931,3.906,-3.845,-0.061
0.205,-0.396,0.945,4.028,-4.211,-0.122
0.201,-0.402,0.950,3.540,-4.333,0.000
0.202,-0.400,0.944,2.808,-3.906,0.183
0.202,-0.395,0.946,2.319,-3.540,0.488
0.205,-0.390,0.918,2.747,-2.869,0.977
0.207,-0.378,0.922,2.502,-3.052,1.038
0.205,-0.382,0.921,2.380,-3.601,0.732
0.204,-0.388,0.923,2.686,-4.089,-0.244
0.198,-0.392,0.938,2.869,-4.944,-0.793
0.195,-0.406,0.941,2.808,-4.822,-1.099
0.197,-0.402,0.953,2.991,-4.395,-0.793
0.198,-0.402,0.945,2.808,-3.845,-0.183

-0.667,-1.134,1.277,150.085,-247.253,-155.090
-0.637,-1.264,1.515,134.827,-211.182,-135.437
-0.557,-1.344,1.542,119.263,-161.621,-107.483
-0.484,-1.338,1.478,100.891,-111.572,-75.378
-0.430,-1.307,1.393,80.444,-69.092,-44.983
-0.391,-1.278,1.277,63.965,-34.668,-18.738
-0.375,-1.197,1.158,51.208,-10.742,3.967
-0.397,-1.119,1.099,41.504,1.831,21.240
-0.439,-1.040,1.051,33.630,8.667,32.227
-0.475,-0.989,1.025,25.574,11.902,37.903
-0.513,-0.947,1.104,14.526,12.634,38.696
-0.576,-0.998,1.176,2.625,16.968,37.354
-0.607,-1.066,1.271,-11.536,28.015,38.025
-0.606,-1.162,1.323,-33.691,46.021,41.321
-0.598,-1.206,1.371,-57.800,67.139,50.659
-0.580,-1.156,1.382,-75.989,91.736,66.650
-0.559,-1.105,1.297,-90.698,119.629,82.397
-0.534,-1.049,1.160,-104.187,144.470,95.642
-0.507,-0.929,1.030,-111.877,163.574,107.910
-0.459,-0.839,0.889,-111.450,176.880,117.432
-0.413,-0.715,0.784,-107.239,184.875,123.535
-0.405,-0.598,0.723,-104.309,184.998,123.535
-0.401,-0.545,0.622,-103.943,181.763,116.211
-0.346,-0.427,0.636,-105.469,170.410,108.276
-0.277,-0.348,0.635,-103.821,158.325,96.375
-0.204,-0.329,0.616,-100.708,148.437,80.261
-0.127,-0.350,0.655,-97.961,135.132,63.232
-0.049,-0.385,0.678,-94.788,122.253,47.791
-0.005,-0.421,0.672,-90.881,111.084,36.194
0.051,-0.402,0.723,-82.153,99.060,29.968
0.111,-0.357,0.704,-72.510,92.102,27.344
0.158,-0.348,0.641,-65.369,88.135,23.315
0.202,-0.344,0.635,-59.509,80.078,18.860
0.247,-0.339,0.612,-52.185,70.129,15.442
0.281,-0.347,0.615,-46.631,59.082,11.414
0.299,-0.350,0.678,-44.189,45.349,7.019
0.302,-0.395,0.727,-38.513,33.813,3.540
0.296,-0.361,0.716,-29.175,26.733,3.967
0.303,-0.373,0.739,-23.315,20.508,4.272
0.304,-0.390,0.736,-18.738,15.808,3.601
0.295,-0.359,0.741,-15.137,11.230,5.005
0.291,-0.348,0.745,-11.719,6.653,5.066
0.288,-0.339,0.718,-6.653,2.686,4.761
0.271,-0.355,0.731,-2.014,-2.625,3.662
0.245,-0.377,0.787,0.977,-8.423,2.258
0.218,-0.380,0.845,3.174,-12.329,2.136
0.197,-0.404,0.863,4.089,-12.512,1.526
0.187,-0.434,0.891,3.174,-11.902,0.793
0.178,-0.444,0.900,2.380,-10.376,1.587
0.174,-0.425,0.891,2.319,-8.179,3.479
0.173,-0.402,0.879,3.052,-6.348,5.066
0.170,-0.395,0.864,4.211,-4.700,5.676
0.167,-0.368,0.839,5.981,-4.150,6.104
0.159,-0.362,0.848,7.751,-4.395,4.944
0.164,-0.370,0.853,8.545,-5.310,2.808
0.165,-0.404,0.865,8.545,-6.897,0.183
0.158,-0.432,0.908,7.935,-9.277,-1.770
0.155,-0.449,0.932,7.996,-10.132,-1.831
0.156,-0.460,0.921,7.812,-8.789,-1.404
0.154,-0.454,0.962,6.592,-7.996,-0.061
0.150,-0.441,0.949,5.859,-5.310,2.136
0.149,-0.437,0.916,5.493,-2.319,3.357
0.150,-0.429,0.912,5.249,-1.282,3.967
0.146,-0.425,0.916,4.517,-1.770,3.479
0.142,-0.430,0.937,3.662,-2.869,2.136
0.136,-0.430,0.945,2.686,-3.052,1.160
0.137,-0.430,0.944,2.319,-1.770,0.854
0.143,-0.428,0.924,2.380,-0.061,0.916
0.151,-0.399,0.919,3.052,1.343,1.526
0.160,-0.397,0.898,3.113,1.892,0.610
0.170,-0.400,0.887,3.052,1.587,-0.732
0.175,-0.407,0.901,3.296,0.000,-1.770
0.179,-0.425,0.912,3.662,-0.916,-2.563
0.178,-0.444,0.932,3.601,-1.099,-2.747
0.181,-0.451,0.930,3.174,-0.732,-2.075
0.184,-0.442,0.925,3.113,-0.305,-0.916
0.187,-0.426,0.920,3.174,-0.183,0.061
0.187,-0.424,0.910,4.211,0.000,0.488
0.184,-0.417,0.906,4.883,-0.793,0.183
0.179,-0.435,0.936,4.333,-2.380,-0.732
0.169,-0.469,0.960,3.052,-3.113,-2.136
0.164,-0.459,0.973,2.625,-3.174,-1.465
0.167,-0.463,0.962,2.808,-2.136,-0.732
0.173,-0.464,0.947,2.808,-1.099,-0.305
0.178,-0.439,0.948,2.136,-1.099,0.549
0.181,-0.428,0.938,1.831,-1.099,0.793
0.185,-0.422,0.906,2.258,-0.793,0.427
0.185,-0.417,0.898,2.991,-1.831,0.183
0.183,-0.420,0.920,3.174,-2.930,0.061
0.176,-0.432,0.931,3.601,-2.869,0.122
0.169,-0.440,0.934,4.211,-2.563,0.122
0.164,-0.439,0.939,4.272,-2.441,0.183
0.163,-0.431,0.930,4.700,-2.258,0.366
0.169,-0.432,0.923,4.700,-2.441,-0.305
0.173,-0.432,0.927,4.089,-3.052,-0.977
0.176,-0.426,0.915,4.211,-3.418,-1.282
0.178,-0.426,0.900,5.066,-3.662,-1.526
0.184,-0.451,0.922,4.639,-4.761,-2.197
0.178,-0.454,0.976,3.235,-5.798,-2.014
0.172,-0.472,0.972,2.930,-4.700,-1.343
0.170,-0.469,0.954,2.869,-3.235,-0.305
0.168,-0.445,0.945,3.113,-2.441,1.465
0.167,-0.431,0.925,3.662,-2.197,1.770
0.171,-0.440,0.932,3.357,-3.052,0.671
0.167,-0.466,0.960,2.686,-3.967,-0.732
0.159,-0.470,0.963,2.930,-3.845,-0.488
0.159,-0.455,0.959,2.930,-2.869,0.610
0.159,-0.443,0.938,2.625,-1.709,1.343
0.163,-0.432,0.920,2.686,-1.526,1.343
0.167,-0.434,0.918,2.686,-2.380,0.671
0.162,-0.421,0.945,2.197,-2.747,0.305
0.160,-0.438,0.925,2.075,-1.831,-0.183
0.158,-0.434,0.910,1.953,-0.916,-0.061
0.156,-0.416,0.906,2.502,-0.916,0.427
0.159,-0.411,0.898,3.540,-0.977,-0.061
0.165,-0.435,0.909,3.113,-1.831,-1.526
0.168,-0.449,0.937,2.380,-2.869,-2.258
0.169,-0.457,0.931,2.258,-2.075,-1.892
0.170,-0.445,0.916,2.441,-1.099,-0.549

-0.562,-1.141,1.296,131.470,-161.926,-113.464
-0.517,-1.207,1.324,120.422,-121.460,-88.135
-0.490,-1.263,1.273,104.919,-84.717,-62.805
-0.420,-1.190,1.275,88.440,-55.176,-37.170
-0.378,-1.129,1.173,72.754,-29.846,-16.052
-0.354,-1.056,1.055,60.486,-11.597,-1.221
-0.348,-0.998,0.974,49.805,-3.174,8.728
-0.372,-0.946,0.881,41.016,-0.732,13.855
-0.408,-0.911,0.900,33.875,-4.150,15.320
-0.446,-0.887,0.954,27.344,-7.263,14.526
-0.484,-0.925,0.987,20.081,-5.737,12.878
-0.513,-0.982,1.045,11.963,-1.282,12.756
-0.532,-1.038,1.166,1.587,7.629,16.296
-0.531,-1.137,1.256,-13.184,23.682,22.827
-0.516,-1.236,1.341,-34.485,44.983,33.752
-0.512,-1.278,1.397,-57.617,69.885,49.866
-0.511,-1.255,1.368,-74.768,98.022,71.716
-0.500,-1.177,1.234,-86.182,128.113,94.971
-0.490,-1.106,1.075,-97.046,152.893,113.770
-0.479,-1.005,1.013,-105.225,168.640,129.333
-0.468,-0.888,0.856,-106.995,179.810,140.747
-0.446,-0.749,0.807,-111.023,184.326,145.996
-0.425,-0.676,0.843,-119.934,181.580,141.174
-0.418,-0.638,0.821,-117.310,180.908,131.104
-0.384,-0.591,0.804,-104.736,178.955,122.314
-0.318,-0.522,0.669,-106.506,178.223,113.403
-0.222,-0.402,0.604,-105.713,169.067,104.065
-0.117,-0.344,0.549,-102.966,154.846,89.722
-0.016,-0.314,0.507,-98.145,138.733,72.693
0.058,-0.295,0.526,-90.271,120.361,56.641
0.129,-0.294,0.512,-81.543,103.455,42.236
0.183,-0.294,0.517,-74.463,86.853,29.663
0.228,-0.296,0.562,-69.458,69.824,19.165
0.261,-0.280,0.607,-63.599,56.396,11.353
0.282,-0.297,0.593,-55.725,47.668,5.798
0.310,-0.335,0.573,-46.265,40.283,1.465
0.328,-0.330,0.596,-38.940,31.555,0.916
0.334,-0.332,0.612,-33.936,24.231,0.549
0.345,-0.345,0.628,-27.161,17.334,0.671
0.344,-0.338,0.637,-19.470,10.803,1.282
0.331,-0.361,0.671,-15.686,3.845,1.038
0.311,-0.380,0.719,-12.207,-2.441,0.671
0.284,-0.381,0.749,-6.653,-5.676,1.953
0.252,-0.376,0.765,-0.732,-7.751,3.479
0.230,-0.370,0.780,4.700,-9.583,3.784
0.214,-0.398,0.790,9.155,-11.780,2.136
0.201,-0.414,0.800,11.536,-13.977,0.610
0.185,-0.435,0.848,11.902,-16.418,-0.427
0.164,-0.461,0.904,10.193,-17.761,-1.709
0.147,-0.474,0.958,8.240,-16.541,-2.014
0.141,-0.484,0.965,6.409,-12.573,-1.526
0.148,-0.488,0.932,4.578,-7.263,-0.366
0.161,-0.462,0.894,4.211,-4.150,1.709
0.171,-0.443,0.869,4.517,-2.991,3.052
0.179,-0.424,0.858,5.310,-3.235,3.357
0.176,-0.410,0.865,6.592,-3.784,3.113
0.169,-0.411,0.855,7.874,-4.272,1.953
0.163,-0.419,0.876,7.935,-5.432,0.244
0.157,-0.423,0.920,7.507,-6.226,-1.038
0.160,-0.463,0.921,7.935,-5.127,-2.319
0.161,-0.476,0.923,7.446,-3.906,-2.319
0.168,-0.482,0.927,6.104,-3.296,-1.282
0.175,-0.501,0.920,4.089,-2.686,-1.099
0.175,-0.466,0.943,2.991,-3.174,0.244
0.173,-0.469,0.928,3.540,-2.258,0.671
0.171,-0.458,0.881,4.150,-1.160,0.732
0.166,-0.430,0.900,4.272,-2.747,1.038
0.162,-0.450,0.919,4.272,-3.845,-0.671
0.161,-0.477,0.949,3.235,-4.028,-2.563
0.166,-0.464,0.971,2.563,-2.686,-2.197
0.176,-0.479,0.937,2.869,1.038,-1.587
0.188,-0.465,0.897,3.845,3.113,-0.305
0.193,-0.436,0.882,4.456,2.441,0.610
0.196,-0.418,0.880,5.554,0.366,-0.122
0.198,-0.448,0.889,6.042,-2.319,-2.563
0.193,-0.496,0.923,4.272,-4.150,-4.700
0.188,-0.484,0.974,3.357,-4.578,-3.540
0.190,-0.493,0.945,3.906,-2.319,-1.953
0.192,-0.485,0.912,4.639,0.000,-0.610
0.191,-0.458,0.906,5.127,-0.732,0.610
0.190,-0.442,0.893,5.859,-2.197,0.122
0.189,-0.454,0.886,5.981,-4.211,-1.648
0.192,-0.469,0.919,5.493,-6.531,-3.601
0.188,-0.480,0.961,5.310,-7.202,-3.723
0.187,-0.490,0.923,5.920,-4.761,-2.869
0.184,-0.496,0.945,5.737,-4.517,-2.075
0.179,-0.502,0.954,5.432,-4.639,-1.465
0.176,-0.511,0.975,3.601,-4.578,-1.465
0.172,-0.503,0.985,2.563,-4.333,-0.671
0.169,-0.505,0.960,2.319,-2.747,0.183
0.170,-0.491,0.938,2.014,-1.465,1.282
0.170,-0.479,0.925,1.343,-1.404,1.831
0.173,-0.476,0.946,0.488,-2.136,1.648
0.168,-0.470,0.934,-0.061,-1.892,1.709
0.165,-0.457,0.910,0.183,-0.854,2.014
0.165,-0.442,0.906,0.549,-1.343,1.831
0.164,-0.433,0.883,1.038,-1.770,0.977
0.166,-0.434,0.895,2.075,-3.052,-0.244
0.165,-0.435,0.899,2.930,-3.784,-1.404
0.165,-0.448,0.898,3.601,-3.784,-2.441
0.166,-0.473,0.923,3.418,-4.395,-3.479
0.170,-0.488,0.931,2.502,-4.395,-3.662
0.174,-0.470,0.934,1.648,-4.211,-2.686
0.177,-0.474,0.917,1.892,-3.418,-2.075
0.178,-0.462,0.899,2.136,-2.380,-1.282
0.175,-0.453,0.896,1.709,-2.930,-0.793
0.174,-0.451,0.890,1.892,-3.662,-1.282
0.178,-0.443,0.900,2.258,-3.967,-1.770
0.177,-0.456,0.905,3.052,-4.150,-2.197
0.177,-0.470,0.900,3.418,-3.662,-2.197
0.177,-0.473,0.917,3.662,-3.601,-1.709
0.174,-0.469,0.929,3.662,-2.869,-1.038
0.175,-0.489,0.923,3.540,-1.831,-0.793
0.177,-0.491,0.913,2.930,-0.916,-0.305
0.180,-0.484,0.912,2.441,-0.977,0.793
0.181,-0.488,0.901,1.587,-1.099,1.343
0.177,-0.484,0.900,0.427,-1.709,1.770
0.171,-0.462,0.896,0.183,-2.563,2.441
0.167,-0.454,0.884,0.671,-2.686,2.441

-0.273,-1.194,1.170,151.855,-127.930,-120.483
-0.239,-1.280,1.183,137.878,-108.337,-102.539
-0.203,-1.300,1.217,122.986,-92.163,-82.092
-0.163,-1.254,1.185,106.812,-75.745,-59.143
-0.168,-1.208,1.093,91.614,-59.937,-39.673
-0.189,-1.150,1.042,76.904,-50.232,-22.766
-0.223,-1.105,1.007,62.073,-43.213,-9.338
-0.278,-1.089,0.953,49.377,-37.109,0.549
-0.333,-1.079,0.956,39.124,-33.447,9.644
-0.390,-1.083,1.029,28.992,-29.724,18.555
-0.452,-1.131,1.113,17.151,-20.386,28.381
-0.492,-1.224,1.232,1.892,-4.395,40.894
-0.522,-1.318,1.357,-21.301,16.968,56.030
-0.543,-1.327,1.428,-47.241,44.495,76.416
-0.526,-1.329,1.359,-71.167,79.163,97.412
-0.492,-1.246,1.159,-89.844,113.770,117.004
-0.444,-1.148,1.013,-106.812,136.108,133.179
-0.426,-1.036,0.953,-120.605,150.208,145.264
-0.429,-0.872,0.829,-125.244,161.560,155.212
-0.398,-0.690,0.681,-124.390,169.312,158.447
-0.361,-0.567,0.606,-125.549,165.405,149.780
-0.323,-0.475,0.578,-126.526,155.518,133.362
-0.258,-0.372,0.562,-122.986,143.005,114.380
-0.188,-0.330,0.506,-116.333,129.578,92.407
-0.114,-0.343,0.507,-109.314,113.953,68.665
-0.045,-0.352,0.575,-102.661,96.069,48.401
0.019,-0.341,0.608,-92.346,83.191,32.532
0.107,-0.355,0.600,-83.374,75.623,19.714
0.177,-0.438,0.611,-79.285,69.092,7.019
0.218,-0.480,0.634,-71.472,62.439,-1.343
0.265,-0.449,0.638,-62.561,55.054,-0.977
0.303,-0.431,0.614,-53.955,49.805,1.099
0.333,-0.453,0.591,-45.959,44.373,1.587
0.333,-0.438,0.598,-39.734,37.476,3.174
0.329,-0.423,0.644,-34.668,30.273,5.066
0.331,-0.465,0.687,-29.419,24.292,5.249
0.320,-0.486,0.712,-25.085,18.921,5.249
0.302,-0.506,0.789,-22.339,12.695,5.188
0.289,-0.470,0.819,-19.714,8.301,6.653
0.286,-0.468,0.802,-16.541,5.920,6.958
0.274,-0.512,0.776,-14.343,3.296,5.432
0.266,-0.486,0.775,-10.742,-0.977,6.653
0.253,-0.444,0.766,-5.920,-4.089,8.057
0.242,-0.430,0.779,-3.967,-6.592,7.507
0.216,-0.447,0.790,-2.930,-9.033,5.188
0.194,-0.455,0.831,-0.977,-10.925,4.028
0.189,-0.462,0.842,0.854,-10.498,4.028
0.178,-0.489,0.870,0.977,-9.216,3.296
0.172,-0.491,0.879,1.221,-7.629,3.784
0.173,-0.498,0.865,1.892,-5.066,4.639
0.175,-0.485,0.866,2.014,-4.089,5.615
0.175,-0.458,0.854,2.075,-3.296,6.470
0.179,-0.449,0.829,2.808,-2.319,6.104
0.173,-0.447,0.841,3.601,-3.113,4.944
0.174,-0.436,0.843,4.761,-3.418,4.089
0.174,-0.458,0.859,4.944,-3.723,1.953
0.171,-0.469,0.867,5.188,-3.906,0.549
0.175,-0.478,0.875,5.371,-3.784,0.061
0.174,-0.483,0.895,4.761,-3.784,-0.610
0.181,-0.474,0.897,4.883,-2.808,-0.305
0.185,-0.496,0.878,5.371,-1.343,-0.671
0.188,-0.495,0.877,5.127,-0.977,-0.366
0.191,-0.481,0.889,4.944,-0.977,0.305
0.194,-0.493,0.893,4.211,-0.610,0.061
0.200,-0.514,0.898,3.052,-0.366,-0.977
0.201,-0.515,0.911,1.648,-1.099,-0.610
0.205,-0.493,0.902,1.709,-1.038,0.244
0.208,-0.483,0.889,2.014,-0.732,0.305
0.212,-0.491,0.883,2.258,-0.793,-0.427
0.210,-0.497,0.884,2.686,-1.770,-0.732
0.209,-0.494,0.896,3.052,-2.869,-0.671
0.209,-0.493,0.895,3.296,-3.357,-0.793
0.206,-0.506,0.891,3.113,-3.479,-1.099
0.203,-0.507,0.904,2.625,-3.540,-0.549
0.203,-0.490,0.905,2.747,-2.808,0.854
0.203,-0.485,0.889,2.625,-1.709,1.282
0.208,-0.479,0.867,2.808,-1.099,1.343
0.208,-0.483,0.867,2.808,-2.014,1.221
0.203,-0.483,0.888,2.686,-3.174,0.610
0.199,-0.490,0.892,2.747,-3.662,0.366
0.196,-0.491,0.890,2.747,-3.723,0.061
0.194,-0.488,0.891,3.174,-3.845,-0.061
0.196,-0.490,0.896,3.540,-3.662,-0.122
0.197,-0.505,0.915,3.113,-3.418,-0.427
0.196,-0.521,0.925,2.563,-3.174,-0.671
0.199,-0.512,0.910,2.686,-2.014,0.183
0.202,-0.506,0.899,2.869,-1.892,0.854
0.202,-0.492,0.896,2.991,-1.953,1.404
0.200,-0.486,0.896,3.174,-1.892,1.404
0.197,-0.501,0.888,3.113,-1.892,0.305
0.194,-0.507,0.902,3.235,-2.808,-0.122
0.188,-0.501,0.908,3.418,-2.808,0.305
0.192,-0.496,0.902,3.174,-2.075,0.610
0.195,-0.500,0.892,3.052,-1.404,0.366
0.194,-0.502,0.888,3.113,-1.587,0.061
0.195,-0.502,0.899,2.991,-2.258,0.122
0.193,-0.501,0.902,2.625,-2.136,0.061
0.193,-0.509,0.908,2.197,-1.831,-0.061
0.197,-0.511,0.902,1.648,-1.709,0.122
0.202,-0.499,0.890,1.465,-1.099,1.038
0.203,-0.493,0.893,0.977,-1.160,0.977
0.203,-0.497,0.885,1.038,-1.587,0.793
0.200,-0.500,0.889,1.038,-2.563,0.183
0.196,-0.501,0.904,1.099,-3.662,-0.061
0.190,-0.500,0.907,1.526,-3.967,-0.183
0.189,-0.506,0.900,1.465,-3.540,-0.427
0.187,-0.499,0.899,1.892,-2.930,0.061
0.191,-0.493,0.895,2.319,-2.380,0.732
0.193,-0.501,0.888,1.526,-2.014,0.366
0.194,-0.491,0.891,0.732,-2.625,0.305
0.195,-0.487,0.891,0.793,-2.625,0.488
0.193,-0.500,0.886,0.549,-2.563,0.000
0.187,-0.499,0.893,0.244,-3.052,0.122
0.183,-0.497,0.896,0.793,-2.991,0.488
0.183,-0.490,0.890,1.160,-2.258,0.793
0.181,-0.484,0.887,1.099,-1.953,0.488
0.181,-0.482,0.888,1.404,-2.075,-0.183
0.183,-0.482,0.882,1.770,-1.709,-0.671
0.186,-0.490,0.881,2.136,-1.282,-0.977

-0.588,-1.246,1.472,120.667,-159.668,-113.647
-0.525,-1.392,1.554,105.530,-109.497,-87.219
-0.462,-1.442,1.483,90.454,-56.030,-52.673
-0.395,-1.434,1.348,75.623,-10.132,-17.944
-0.302,-1.285,1.237,60.913,23.682,15.564
-0.272,-1.147,1.059,49.011,48.767,40.039
-0.256,-1.043,0.964,40.283,60.120,54.321
-0.260,-0.949,0.941,32.898,60.913,60.852
-0.284,-0.913,0.936,24.231,58.838,60.242
-0.306,-0.941,0.937,12.573,55.481,54.688
-0.315,-0.961,0.931,-1.282,50.781,49.011
-0.306,-0.979,1.027,-17.761,43.640,44.312
-0.275,-0.963,1.073,-32.288,41.138,40.100
-0.246,-0.927,1.037,-43.335,47.546,37.842
-0.220,-0.907,1.005,-51.086,54.565,36.865
-0.183,-0.904,0.965,-57.617,61.096,37.659
-0.174,-0.919,0.914,-61.890,67.322,40.649
-0.149,-0.888,0.892,-65.552,72.388,46.753
-0.143,-0.856,0.927,-69.519,77.148,53.894
-0.149,-0.809,0.862,-68.359,84.412,60.852
-0.136,-0.736,0.809,-66.040,90.942,67.444
-0.123,-0.687,0.798,-64.209,92.957,70.251
-0.118,-0.637,0.731,-61.401,94.604,70.557
-0.114,-0.569,0.690,-58.167,92.102,68.848
-0.087,-0.526,0.679,-56.580,85.754,63.110
-0.062,-0.520,0.685,-57.739,78.003,53.345
-0.034,-0.541,0.746,-60.425,68.115,42.175
-0.006,-0.590,0.829,-65.796,59.021,31.067
0.010,-0.633,0.914,-68.420,52.368,22.339
0.032,-0.646,0.990,-70.618,50.537,16.907
0.039,-0.708,1.000,-71.960,53.101,11.902
0.064,-0.753,0.999,-70.618,56.580,12.024
0.062,-0.725,0.925,-69.214,61.462,19.653
0.077,-0.683,0.853,-66.040,65.308,25.513
0.091,-0.592,0.823,-64.148,64.331,31.860
0.113,-0.498,0.800,-61.035,64.148,35.095
0.132,-0.489,0.727,-58.228,63.782,33.752
0.137,-0.455,0.728,-57.312,59.509,31.799
0.135,-0.416,0.741,-55.847,53.589,28.625
0.157,-0.389,0.736,-54.993,49.744,24.170
0.178,-0.364,0.727,-52.002,45.349,19.958
0.200,-0.341,0.704,-46.448,42.419,16.357
0.215,-0.336,0.664,-40.649,39.429,13.062
0.246,-0.344,0.659,-34.607,35.278,9.521
0.272,-0.343,0.703,-31.250,28.931,7.751
0.281,-0.347,0.703,-27.344,25.024,5.798
0.295,-0.341,0.703,-22.339,20.935,4.639
0.309,-0.365,0.697,-17.395,16.235,3.174
0.308,-0.373,0.688,-12.817,11.230,2.625
0.303,-0.368,0.715,-9.216,4.761,2.808
0.289,-0.372,0.738,-5.920,-0.916,2.319
0.274,-0.389,0.769,-2.930,-4.395,2.136
0.257,-0.421,0.808,-0.793,-6.592,2.136
0.237,-0.417,0.853,0.244,-7.385,3.357
0.223,-0.404,0.858,2.747,-5.920,4.883
0.215,-0.414,0.865,4.944,-4.395,4.517
0.213,-0.429,0.861,7.019,-4.089,3.601
0.219,-0.433,0.858,8.179,-4.028,3.052
0.217,-0.448,0.875,8.545,-4.883,2.258
0.215,-0.448,0.888,9.216,-5.920,1.709
0.211,-0.454,0.901,9.644,-6.226,1.587
0.205,-0.476,0.912,8.911,-6.104,1.221
0.199,-0.478,0.924,8.667,-5.676,1.770
0.192,-0.460,0.911,9.155,-4.700,2.930
0.192,-0.446,0.901,9.460,-4.272,3.113
0.187,-0.461,0.905,8.972,-4.333,2.014
0.185,-0.467,0.911,7.996,-4.517,1.160
0.186,-0.465,0.927,7.019,-4.578,0.610
0.186,-0.481,0.927,5.615,-4.456,-0.244
0.183,-0.484,0.943,4.272,-4.333,-0.732
0.187,-0.468,0.933,3.967,-3.174,0.244
0.195,-0.464,0.912,3.967,-1.099,0.488
0.202,-0.460,0.905,3.845,-0.427,0.244
0.207,-0.449,0.889,3.906,0.061,0.000
0.212,-0.455,0.880,4.150,-0.427,-0.671
0.213,-0.458,0.887,3.967,-1.831,-1.099
0.213,-0.467,0.904,3.662,-2.625,-1.465
0.216,-0.470,0.891,3.967,-2.380,-1.282
0.219,-0.472,0.895,3.906,-2.258,-0.549
0.218,-0.474,0.900,3.845,-2.502,0.244
0.215,-0.465,0.907,4.639,-2.747,0.854
0.211,-0.447,0.895,5.127,-2.808,1.221
0.211,-0.453,0.894,5.188,-2.991,0.488
0.206,-0.464,0.919,5.005,-3.845,-0.549
0.204,-0.462,0.923,5.493,-3.784,-0.793
0.206,-0.474,0.923,5.554,-3.418,-1.221
0.208,-0.489,0.931,5.310,-3.540,-1.709
0.207,-0.491,0.928,4.883,-2.930,-1.160
0.210,-0.489,0.932,3.967,-2.930,-0.671
0.211,-0.475,0.923,3.357,-2.258,-0.061
0.211,-0.479,0.918,3.540,-2.075,0.122
0.209,-0.479,0.909,3.052,-2.075,0.244
0.204,-0.458,0.908,3.113,-2.502,0.793
0.201,-0.448,0.900,3.418,-2.625,0.427
0.202,-0.454,0.898,3.906,-2.991,-0.732
0.205,-0.448,0.909,3.906,-3.296,-1.465
0.213,-0.460,0.922,4.150,-3.296,-1.953
0.219,-0.491,0.918,3.906,-2.808,-2.930
0.223,-0.497,0.928,3.479,-2.808,-2.441
0.223,-0.500,0.931,3.235,-2.502,-1.343
0.227,-0.492,0.912,3.113,-1.465,0.061
0.229,-0.486,0.904,2.563,-1.099,1.221
0.228,-0.480,0.893,2.625,-1.770,1.648
0.224,-0.466,0.888,3.296,-2.930,2.136
0.215,-0.466,0.893,3.662,-3.906,1.770
0.207,-0.468,0.908,3.906,-4.700,1.099
0.200,-0.480,0.920,4.028,-4.944,0.488
0.194,-0.479,0.933,3.357,-4.578,0.427
0.192,-0.477,0.929,3.174,-3.723,0.916
0.191,-0.479,0.917,2.991,-2.197,1.038
0.200,-0.472,0.906,2.930,-0.916,1.526
0.202,-0.471,0.895,2.808,-0.916,1.526
0.203,-0.464,0.888,2.747,-1.770,1.221
0.198,-0.461,0.887,2.991,-2.747,0.916
0.196,-0.461,0.885,3.418,-3.601,0.488
0.191,-0.474,0.904,3.174,-4.272,-0.671
0.190,-0.478,0.909,3.113,-4.456,-1.099
0.192,-0.473,0.906,3.174,-4.089,-1.160
0.195,-0.470,0.903,2.991,-3.540,-1.038

-0.544,-1.289,1.310,112.366,-225.708,-192.749
-0.468,-1.395,1.412,103.577,-184.021,-156.799
-0.385,-1.492,1.439,91.797,-135.315,-114.014
-0.320,-1.516,1.396,80.566,-85.022,-66.162
-0.277,-1.444,1.290,70.129,-38.574,-17.029
-0.249,-1.309,1.147,58.655,-1.282,26.733
-0.249,-1.179,1.002,47.852,24.109,60.120
-0.262,-1.033,0.915,39.185,36.743,83.130
-0.303,-0.944,0.913,31.616,38.574,94.055
-0.352,-0.915,0.911,25.024,36.194,96.130
-0.398,-0.866,0.860,20.569,33.813,94.482
-0.438,-0.796,0.834,15.442,27.710,89.355
-0.477,-0.759,0.820,8.240,19.958,80.017
-0.490,-0.706,0.794,4.456,13.123,69.397
-0.493,-0.661,0.735,3.052,8.301,58.533
-0.480,-0.630,0.711,0.427,3.540,46.692
-0.466,-0.630,0.682,-2.197,-0.305,34.912
-0.445,-0.626,0.665,-3.601,-2.380,24.963
-0.425,-0.625,0.660,-3.906,-3.845,17.334
-0.400,-0.660,0.662,-3.906,-4.456,10.864
-0.380,-0.695,0.659,-3.174,-4.272,6.897
-0.366,-0.708,0.683,-2.441,-4.089,6.104
-0.354,-0.745,0.706,-1.587,-3.174,6.897
-0.355,-0.741,0.693,0.366,-0.183,9.827
-0.357,-0.730,0.725,0.061,1.526,13.000
-0.363,-0.729,0.740,-1.770,4.822,14.832
-0.370,-0.740,0.732,-3.235,9.460,15.991
-0.367,-0.729,0.719,-4.578,13.184,17.029
-0.352,-0.705,0.701,-5.615,15.747,17.273
-0.335,-0.694,0.673,-6.165,17.456,15.686
-0.319,-0.689,0.655,-6.470,17.151,12.939
-0.303,-0.687,0.649,-5.737,14.648,9.949
-0.287,-0.693,0.642,-4.944,11.597,6.714
-0.273,-0.700,0.641,-4.211,8.179,3.723
-0.261,-0.695,0.640,-2.991,4.333,1.404
-0.251,-0.703,0.664,-2.380,0.488,-0.549
-0.251,-0.739,0.703,-3.052,-2.380,-2.563
-0.247,-0.780,0.753,-4.272,-3.052,-2.747
-0.249,-0.857,0.811,-7.690,-1.404,-0.916
-0.254,-0.912,0.873,-13.733,2.625,3.479
-0.257,-0.986,0.980,-23.926,8.850,10.376
-0.251,-1.032,1.109,-35.889,18.860,19.165
-0.282,-1.170,1.277,-47.180,35.095,31.250
-0.326,-1.341,1.469,-65.247,58.899,46.326
-0.382,-1.392,1.498,-79.529,91.187,71.960
-0.416,-1.358,1.429,-88.257,128.357,102.478
-0.457,-1.233,1.243,-93.689,163.635,131.531
-0.445,-1.070,1.022,-95.337,189.636,155.151
-0.426,-0.885,0.801,-98.999,203.796,168.396
-0.384,-0.688,0.702,-108.032,201.904,169.006
-0.327,-0.516,0.619,-115.295,191.040,158.936
-0.259,-0.390,0.521,-117.065,175.110,140.259
-0.172,-0.294,0.477,-115.234,153.442,117.249
-0.078,-0.213,0.462,-111.694,129.578,92.285
0.014,-0.233,0.459,-110.474,106.201,64.697
0.076,-0.266,0.500,-105.408,83.374,41.077
0.126,-0.277,0.526,-94.116,66.406,25.940
0.174,-0.275,0.561,-83.008,55.420,16.846
0.199,-0.307,0.565,-72.815,49.316,10.437
0.239,-0.293,0.564,-61.340,45.105,9.094
0.269,-0.271,0.545,-49.927,42.542,10.132
0.295,-0.282,0.525,-40.344,38.940,10.559
0.304,-0.284,0.518,-31.555,32.349,10.132
0.306,-0.249,0.528,-22.461,22.705,10.010
0.301,-0.247,0.540,-14.404,12.024,7.080
0.284,-0.293,0.601,-8.545,0.549,1.770
0.259,-0.352,0.688,-3.723,-9.216,-2.930
0.226,-0.393,0.799,1.648,-15.625,-4.761
0.199,-0.420,0.826,8.484,-15.625,-4.333
0.185,-0.478,0.837,12.390,-13.184,-4.272
0.182,-0.480,0.855,14.404,-12.512,-2.441
0.174,-0.482,0.881,15.259,-11.719,-1.404
0.167,-0.488,0.896,15.503,-11.108,-1.465
0.164,-0.501,0.896,14.893,-10.864,-2.197
0.149,-0.508,0.919,12.634,-11.292,-2.808
0.143,-0.502,0.942,11.230,-10.559,-2.869
0.144,-0.521,0.937,10.254,-7.812,-2.991
0.144,-0.520,0.919,8.789,-4.700,-2.075
0.148,-0.502,0.906,7.629,-2.991,-0.671
0.158,-0.488,0.891,6.836,-1.892,-0.305
0.167,-0.478,0.877,6.653,-1.709,-0.732
0.174,-0.476,0.859,6.592,-2.686,-1.892
0.181,-0.485,0.859,6.531,-4.028,-2.869
0.179,-0.500,0.876,5.737,-5.615,-4.211
0.172,-0.501,0.905,5.432,-7.202,-4.028
0.168,-0.503,0.909,5.615,-6.714,-3.479
0.164,-0.495,0.911,5.432,-4.944,-1.953
0.163,-0.494,0.896,5.066,-3.174,-0.793
0.167,-0.486,0.877,5.249,-1.648,-0.061
0.170,-0.493,0.880,4.639,-1.831,0.061
0.169,-0.494,0.902,4.272,-2.686,-0.244
0.166,-0.497,0.901,4.456,-2.747,-0.366
0.163,-0.495,0.895,4.944,-3.052,-0.549
0.156,-0.493,0.901,5.371,-4.028,-1.099
0.152,-0.491,0.907,5.798,-4.822,-2.136
0.156,-0.504,0.916,5.493,-5.920,-3.784
0.159,-0.510,0.958,4.761,-6.348,-4.333
0.163,-0.529,0.932,4.761,-4.639,-4.150
0.167,-0.511,0.915,4.578,-2.991,-2.808
0.169,-0.500,0.907,4.822,-2.563,-1.831
0.169,-0.499,0.901,5.127,-2.747,-2.258
0.171,-0.525,0.910,4.028,-3.723,-3.357
0.179,-0.535,0.935,2.197,-4.456,-3.906
0.183,-0.528,0.958,1.587,-4.211,-2.319
0.185,-0.540,0.900,2.625,-1.282,-0.610
0.183,-0.514,0.900,2.991,-1.221,1.587
0.176,-0.489,0.892,3.540,-1.953,2.930
0.170,-0.491,0.887,3.723,-2.625,2.014
0.172,-0.494,0.898,3.052,-3.784,0.854
0.170,-0.494,0.906,2.930,-4.028,0.427
0.168,-0.502,0.882,3.479,-3.601,-0.183
0.167,-0.497,0.885,4.089,-3.967,-0.061
0.164,-0.496,0.890,4.333,-4.700,-0.305
0.162,-0.504,0.892,3.723,-5.798,-1.465
0.161,-0.487,0.917,3.601,-6.104,-1.343
0.160,-0.508,0.908,4.333,-4.639,-1.160
0.157,-0.516,0.883,4.944,-2.869,-0.488
0.159,-0.508,0.903,4.333,-3.174,0.732
0.156,-0.518,0.906,3.052,-3.540,0.305

-0.753,-1.067,1.172,129.761,-232.849,-177.490
-0.728,-1.269,1.360,115.662,-193.115,-156.555
-0.665,-1.411,1.496,99.304,-143.188,-123.962
-0.583,-1.468,1.468,80.322,-86.243,-82.886
-0.500,-1.494,1.300,65.674,-29.846,-38.452
-0.459,-1.370,1.203,54.016,10.925,5.554
-0.441,-1.219,1.105,43.823,40.161,41.016
-0.426,-1.087,1.022,34.973,60.120,65.735
-0.460,-0.999,0.962,24.902,71.106,79.712
-0.482,-0.955,0.922,14.465,75.012,84.717
-0.493,-0.912,0.885,2.380,75.562,85.449
-0.512,-0.899,0.889,-10.315,72.571,82.031
-0.508,-0.878,0.892,-22.156,68.726,76.843
-0.480,-0.840,0.907,-32.104,65.979,72.205
-0.455,-0.822,0.898,-39.978,65.796,67.444
-0.425,-0.852,0.882,-47.180,67.932,63.232
-0.393,-0.871,0.886,-53.284,70.557,61.951
-0.376,-0.860,0.916,-57.495,75.134,65.186
-0.361,-0.874,0.937,-61.157,82.886,70.496
-0.354,-0.902,0.956,-65.491,93.323,76.721
-0.359,-0.933,0.992,-71.289,103.943,84.167
-0.370,-0.950,1.035,-75.806,115.967,93.323
-0.371,-0.914,0.969,-77.087,129.272,104.370
-0.355,-0.812,0.887,-78.125,140.137,114.258
-0.334,-0.706,0.859,-81.604,145.020,119.019
-0.308,-0.664,0.767,-82.642,148.132,117.554
-0.256,-0.584,0.681,-82.153,145.569,113.464
-0.210,-0.505,0.651,-81.238,135.742,105.835
-0.165,-0.458,0.646,-80.383,123.474,93.933
-0.123,-0.456,0.641,-81.543,110.535,78.430
-0.089,-0.436,0.694,-79.956,95.825,64.331
-0.042,-0.407,0.706,-74.951,85.083,52.917
0.009,-0.405,0.691,-69.580,77.271,41.992
0.051,-0.413,0.673,-64.514,68.970,32.532
0.084,-0.408,0.659,-59.509,60.791,25.391
0.113,-0.395,0.669,-52.002,52.917,20.630
0.144,-0.399,0.659,-43.518,47.180,17.151
0.170,-0.395,0.637,-36.743,42.358,14.587
0.183,-0.384,0.660,-32.104,35.950,12.817
0.191,-0.408,0.695,-29.114,29.724,9.705
0.198,-0.422,0.712,-25.452,25.330,7.874
0.201,-0.437,0.744,-21.545,21.118,7.202
0.200,-0.435,0.760,-17.334,17.822,6.653
0.197,-0.440,0.753,-13.489,15.808,6.714
0.201,-0.439,0.749,-9.583,13.733,6.653
0.200,-0.428,0.742,-5.615,10.925,7.019
0.200,-0.448,0.769,-3.296,7.019,5.615
0.197,-0.447,0.792,-1.282,2.380,3.967
0.184,-0.471,0.818,0.977,-1.526,2.502
0.176,-0.494,0.845,2.563,-4.150,1.282
0.164,-0.500,0.871,3.052,-4.883,1.343
0.159,-0.521,0.888,3.357,-4.822,1.709
0.152,-0.526,0.903,3.479,-3.845,2.930
0.148,-0.508,0.912,3.723,-2.014,5.493
0.150,-0.490,0.879,4.089,1.465,7.568
0.158,-0.480,0.855,4.822,3.479,8.362
0.154,-0.471,0.853,5.188,3.296,8.728
0.157,-0.457,0.826,5.981,2.808,8.362
0.161,-0.448,0.824,6.592,0.305,7.080
0.152,-0.467,0.852,5.798,-2.869,4.517
0.143,-0.486,0.881,6.287,-4.456,2.502
0.143,-0.493,0.898,7.019,-4.578,2.075
0.141,-0.514,0.892,6.653,-4.150,2.014
0.144,-0.523,0.904,5.249,-3.967,2.258
0.145,-0.516,0.908,4.089,-3.540,3.479
0.145,-0.499,0.907,3.723,-2.380,4.700
0.147,-0.485,0.867,4.272,-0.549,5.676
0.139,-0.481,0.859,4.883,-0.732,5.371
0.136,-0.487,0.875,4.883,-2.563,4.333
0.130,-0.499,0.910,3.662,-3.845,2.563
0.127,-0.500,0.931,3.601,-3.662,2.075
0.132,-0.506,0.899,3.723,-1.404,1.953
0.135,-0.490,0.891,4.211,-0.488,2.502
0.138,-0.481,0.885,4.883,-0.732,2.136
0.141,-0.505,0.885,4.761,-1.648,0.244
0.153,-0.522,0.919,3.540,-3.113,-1.160
0.159,-0.514,0.947,3.540,-2.930,-0.122
0.164,-0.532,0.890,4.028,0.244,0.610
0.166,-0.511,0.882,4.395,0.244,1.953
0.160,-0.480,0.871,5.310,-0.732,3.174
0.155,-0.467,0.860,6.165,-1.953,2.136
0.160,-0.505,0.869,6.226,-4.028,-0.549
0.159,-0.557,0.915,4.395,-6.104,-2.747
0.154,-0.542,0.970,3.662,-6.653,-1.160
0.158,-0.548,0.937,4.150,-3.357,1.099
0.158,-0.542,0.907,3.906,-0.793,2.747
0.155,-0.508,0.892,4.028,0.061,4.700
0.153,-0.486,0.880,5.066,-0.732,5.127
0.153,-0.495,0.877,5.066,-2.136,3.174
0.151,-0.502,0.909,3.235,-4.028,1.038
0.147,-0.525,0.921,2.869,-4.456,0.000
0.144,-0.527,0.905,3.418,-3.723,0.183
0.138,-0.516,0.916,3.418,-3.784,0.793
0.139,-0.519,0.910,3.235,-3.662,0.549
0.140,-0.526,0.908,2.441,-3.784,-0.244
0.148,-0.506,0.920,2.563,-3.906,0.305
0.150,-0.510,0.887,3.357,-2.258,0.854
0.146,-0.511,0.880,3.662,-1.953,0.977
0.139,-0.504,0.891,3.479,-2.563,1.465
0.135,-0.508,0.894,2.930,-2.686,0.977
0.135,-0.514,0.905,1.770,-2.686,0.366
0.138,-0.521,0.909,1.343,-2.197,0.000
0.141,-0.511,0.888,2.075,-0.610,0.854
0.146,-0.501,0.873,2.930,-0.061,1.404
0.150,-0.498,0.866,2.686,-0.793,1.038
0.150,-0.500,0.870,2.197,-2.319,0.244
0.150,-0.490,0.883,2.502,-3.479,-0.061
0.149,-0.507,0.871,3.052,-3.418,-0.854
0.146,-0.512,0.874,3.784,-3.662,-0.793
0.141,-0.516,0.892,4.089,-4.089,-0.427
0.137,-0.526,0.906,3.662,-4.272,-0.793
0.140,-0.507,0.925,2.808,-3.784,-0.305
0.143,-0.534,0.898,2.441,-1.770,-0.671
0.145,-0.544,0.895,2.380,-0.916,-0.488
0.144,-0.525,0.899,1.953,-1.099,1.038
0.147,-0.510,0.905,1.099,-1.099,1.526
0.147,-0.513,0.892,0.854,-0.549,1.404
0.144,-0.516,0.878,0.916,-0.244,1.038
0.140,-0.505,0.883,1.099,-1.343,1.221

-0.654,-1.122,1.178,136.353,-173.401,-138.184
-0.624,-1.258,1.244,124.939,-142.212,-122.925
-0.584,-1.320,1.295,113.281,-109.619,-100.220
-0.535,-1.362,1.283,99.304,-75.439,-74.402
-0.483,-1.398,1.209,82.947,-42.236,-47.424
-0.438,-1.392,1.160,65.125,-15.320,-19.897
-0.437,-1.317,1.112,50.537,5.249,6.958
-0.424,-1.230,1.135,34.180,20.935,29.846
-0.435,-1.239,1.109,18.066,36.011,44.678
-0.473,-1.297,1.151,-3.967,47.668,56.458
-0.514,-1.244,1.247,-28.748,56.763,69.275
-0.510,-1.141,1.247,-46.936,70.923,83.618
-0.506,-1.160,1.182,-64.392,89.783,92.041
-0.502,-1.117,1.085,-77.576,106.812,99.915
-0.468,-1.022,0.973,-87.341,121.033,109.497
-0.451,-0.927,0.851,-94.788,131.470,115.906
-0.408,-0.826,0.725,-97.168,137.451,120.117
-0.380,-0.682,0.679,-97.778,138.672,121.643
-0.359,-0.585,0.652,-96.924,137.024,118.103
-0.311,-0.528,0.573,-91.614,137.573,111.267
-0.265,-0.476,0.536,-88.806,133.057,101.929
-0.212,-0.446,0.595,-88.440,124.023,89.783
-0.172,-0.512,0.617,-89.050,115.662,74.829
-0.127,-0.522,0.642,-87.769,107.117,63.416
-0.081,-0.525,0.703,-86.060,97.107,54.871
-0.041,-0.510,0.712,-80.200,90.210,48.096
0.012,-0.498,0.711,-73.608,85.388,42.908
0.059,-0.510,0.723,-68.604,80.200,36.682
0.067,-0.547,0.716,-63.965,74.768,31.372
0.092,-0.515,0.727,-59.204,68.787,28.259
0.119,-0.504,0.762,-55.786,61.462,26.123
0.133,-0.499,0.722,-49.805,57.800,22.827
0.151,-0.472,0.707,-44.617,52.673,20.325
0.178,-0.437,0.687,-41.199,46.448,18.311
0.199,-0.429,0.671,-37.659,39.185,14.587
0.213,-0.428,0.684,-34.058,30.396,10.193
0.224,-0.434,0.698,-30.334,22.766,6.714
0.227,-0.439,0.709,-26.917,16.663,4.150
0.231,-0.432,0.714,-22.034,10.681,2.869
0.233,-0.428,0.720,-16.846,5.371,1.709
0.229,-0.438,0.734,-11.841,0.427,0.549
0.222,-0.448,0.751,-7.080,-3.113,0.427
0.203,-0.474,0.768,-3.296,-5.066,0.488
0.184,-0.468,0.789,-0.122,-6.592,2.136
0.170,-0.456,0.807,2.258,-7.019,3.723
0.153,-0.470,0.825,3.662,-7.263,3.357
0.139,-0.479,0.835,4.578,-7.568,2.502
0.133,-0.483,0.861,5.493,-7.996,1.709
0.128,-0.517,0.877,4.761,-7.690,0.305
0.131,-0.538,0.895,4.028,-6.897,0.122
0.134,-0.535,0.896,3.845,-5.371,1.587
0.135,-0.521,0.885,4.395,-4.089,3.235
0.135,-0.507,0.869,4.883,-3.723,4.333
0.132,-0.493,0.857,5.066,-3.784,4.456
0.127,-0.476,0.849,6.165,-4.211,4.089
0.123,-0.494,0.862,6.714,-4.944,2.686
0.116,-0.504,0.869,6.287,-5.310,1.587
0.111,-0.505,0.891,6.104,-5.310,1.404
0.115,-0.520,0.894,5.005,-4.883,0.732
0.106,-0.530,0.905,4.028,-4.578,0.427
0.105,-0.508,0.908,3.357,-4.089,1.587
0.110,-0.505,0.897,3.357,-2.502,2.014
0.109,-0.502,0.875,3.174,-0.732,2.136
0.112,-0.487,0.869,3.601,0.122,2.563
0.115,-0.489,0.872,3.906,0.000,1.709
0.120,-0.489,0.869,3.906,-0.305,0.549
0.129,-0.502,0.874,3.845,-0.793,-0.854
0.134,-0.515,0.883,4.333,-1.404,-1.709
0.138,-0.525,0.895,4.150,-1.404,-1.709
0.140,-0.536,0.909,3.601,-1.526,-1.526
0.139,-0.546,0.926,2.991,-1.282,-1.038
0.138,-0.556,0.917,3.113,-0.366,-0.549
0.141,-0.537,0.896,3.174,0.549,0.977
0.143,-0.514,0.881,3.235,0.610,2.014
0.146,-0.512,0.863,3.662,0.122,1.465
0.142,-0.515,0.870,4.028,-1.892,0.610
0.135,-0.517,0.890,4.089,-3.723,-0.305
0.134,-0.516,0.890,4.333,-4.089,-0.793
0.133,-0.534,0.904,4.272,-3.845,-1.038
0.131,-0.544,0.907,3.906,-3.540,-0.793
0.131,-0.552,0.917,3.113,-3.052,-0.244
0.130,-0.549,0.917,2.319,-2.502,0.549
0.130,-0.537,0.909,2.075,-0.977,1.526
0.130,-0.540,0.901,1.648,-0.305,1.770
0.130,-0.529,0.884,1.831,-0.122,1.953
0.130,-0.507,0.885,2.441,-0.854,2.197
0.129,-0.501,0.881,2.808,-1.709,1.404
0.125,-0.519,0.883,3.418,-2.380,-0.305
0.121,-0.531,0.891,3.540,-3.235,-1.282
0.117,-0.530,0.906,3.418,-3.601,-1.099
0.119,-0.540,0.917,2.747,-3.113,-1.099
0.120,-0.548,0.906,1.831,-1.648,-0.793
0.121,-0.543,0.901,1.099,-0.427,0.122
0.122,-0.535,0.902,0.488,-0.183,0.854
0.126,-0.520,0.899,-0.122,0.122,0.854
0.130,-0.521,0.880,-0.549,0.549,0.671
0.133,-0.517,0.874,-0.305,-0.122,0.244
0.132,-0.500,0.874,0.061,-1.343,0.183
0.128,-0.501,0.875,0.427,-2.075,-1.038
0.131,-0.505,0.887,0.732,-2.502,-1.953
0.131,-0.521,0.887,1.404,-2.197,-2.502
0.137,-0.529,0.891,2.014,-1.648,-2.136
0.140,-0.534,0.901,1.465,-1.160,-1.587
0.143,-0.536,0.904,0.671,-0.916,-1.099
0.143,-0.541,0.892,0.305,-0.549,-0.549
0.143,-0.527,0.887,0.122,-0.732,0.305
0.142,-0.513,0.883,0.488,-1.099,1.099
0.140,-0.507,0.879,0.488,-1.343,0.977
0.134,-0.503,0.876,0.488,-1.709,0.549
0.129,-0.514,0.882,1.221,-2.258,-0.244
0.124,-0.520,0.888,1.953,-2.625,-0.183
0.121,-0.507,0.881,2.502,-2.136,0.122
0.125,-0.498,0.881,2.808,-1.770,0.183
0.125,-0.500,0.872,3.052,-1.099,-0.366
0.126,-0.519,0.880,2.808,-1.099,-1.160
0.127,-0.531,0.892,1.526,-1.587,-1.404
0.132,-0.529,0.896,0.793,-1.648,-0.977
0.133,-0.520,0.892,0.610,-1.221,-0.305
0.136,-0.517,0.892,0.732,-0.488,0.427

-0.876,-1.359,1.441,151.245,-235.840,-187.195
-0.814,-1.566,1.610,132.996,-184.143,-160.522
-0.711,-1.665,1.629,111.938,-123.535,-121.765
-0.607,-1.704,1.562,90.332,-64.087,-77.942
-0.538,-1.631,1.436,70.313,-12.756,-32.959
-0.485,-1.485,1.304,53.040,26.611,7.751
-0.463,-1.334,1.153,38.513,55.542,40.100
-0.448,-1.196,1.055,24.536,72.632,62.561
-0.456,-1.068,1.035,9.033,80.444,75.684
-0.480,-1.008,1.006,-6.958,86.060,79.956
-0.494,-0.990,0.960,-22.583,90.576,78.613
-0.465,-0.997,0.935,-40.405,90.942,74.524
-0.426,-0.970,0.954,-57.739,89.050,70.496
-0.413,-0.949,0.987,-71.411,88.623,67.810
-0.380,-0.954,0.994,-80.627,92.285,66.223
-0.357,-0.974,0.981,-88.989,98.450,67.322
-0.342,-0.981,0.982,-93.750,107.300,72.937
-0.344,-0.963,0.959,-96.558,118.713,81.970
-0.344,-0.949,0.955,-96.985,131.470,92.407
-0.343,-0.860,0.818,-92.773,146.118,103.699
-0.320,-0.731,0.755,-92.346,154.236,112.183
-0.285,-0.635,0.694,-94.543,154.724,112.183
-0.226,-0.562,0.635,-99.243,151.306,104.797
-0.195,-0.526,0.604,-102.844,140.076,92.590
-0.141,-0.479,0.643,-101.624,124.451,79.651
-0.080,-0.467,0.678,-102.417,109.680,65.308
-0.051,-0.525,0.734,-103.882,97.534,49.683
