aX,aY,aZ,gX,gY,gZ
-0.303,-1.138,1.007,40.344,-7.019,249.390
-0.186,-0.506,1.110,62.744,-29.907,322.693
-0.144,-0.320,1.175,63.049,-31.921,341.919
-0.187,-0.175,1.217,50.232,-26.794,346.191
-0.159,0.302,1.134,33.325,-16.174,357.849
-0.081,0.596,1.011,15.198,-9.155,337.524
-0.059,0.726,0.877,6.958,-12.939,297.180
-0.097,0.636,0.903,-3.479,-26.062,247.864
-0.118,0.606,0.923,-13.306,-37.842,203.369
-0.123,0.501,0.963,-15.564,-45.044,162.659
-0.125,0.406,1.014,-13.184,-49.500,128.906
-0.123,0.327,1.023,-9.399,-49.011,102.295
-0.109,0.226,1.077,-6.287,-47.546,80.933
-0.083,0.074,1.110,-1.770,-43.701,65.186
-0.066,0.033,1.104,3.662,-37.415,55.542
-0.042,0.018,1.131,9.338,-31.006,49.500
-0.007,0.045,1.114,10.864,-21.667,45.410
-0.024,0.069,1.040,11.292,-11.780,40.833
-0.028,0.089,1.016,11.169,-7.141,34.302
-0.048,0.033,1.010,9.521,-6.165,26.672
-0.034,0.011,1.022,6.775,-5.920,19.226
-0.039,-0.004,1.042,5.554,-6.165,13.916
-0.044,0.002,1.042,5.676,-4.883,9.460
-0.057,-0.014,1.022,6.165,-3.845,4.883
-0.059,-0.067,1.075,4.333,-4.150,0.366
-0.058,-0.110,1.073,2.075,-2.930,-1.953
-0.054,-0.157,1.044,1.099,0.122,-2.441
-0.028,-0.147,1.028,0.916,0.916,-0.732
-0.023,-0.130,1.019,0.732,0.610,0.732
-0.028,-0.126,1.028,0.977,-0.305,2.136
-0.028,-0.111,1.037,1.892,-1.099,2.747
-0.038,-0.080,1.033,3.479,-0.916,3.296
-0.051,-0.076,1.009,4.822,-1.221,2.014
-0.046,-0.099,1.002,4.700,-2.380,-0.244
-0.044,-0.100,1.028,4.639,-3.845,-1.038
-0.049,-0.124,1.009,5.432,-3.845,-1.526
-0.058,-0.180,1.032,3.967,-4.028,-1.587
-0.044,-0.185,1.032,2.197,-3.845,1.221
-0.032,-0.136,1.022,2.380,-2.563,5.005
-0.044,-0.098,1.010,3.540,-2.563,7.019
-0.050,-0.075,1.022,3.113,-2.991,6.714
-0.067,-0.066,1.028,1.709,-2.808,5.615
-0.080,-0.070,1.013,2.197,-1.770,3.540
-0.074,-0.061,1.019,2.319,-1.465,1.831
-0.069,-0.051,1.020,1.892,-1.526,-0.183
-0.063,-0.064,1.006,2.197,-1.343,-2.930
-0.056,-0.089,1.014,2.075,-2.014,-5.310
-0.052,-0.094,1.040,2.686,-2.441,-6.165
-0.059,-0.122,1.049,3.052,-1.587,-6.714
-0.058,-0.147,1.040,2.380,-0.427,-6.226
-0.050,-0.166,1.045,1.526,0.427,-5.066
-0.044,-0.180,1.034,1.648,0.793,-2.808
-0.029,-0.132,1.031,1.282,1.709,0.305
-0.032,-0.098,1.027,1.221,0.977,1.770
-0.042,-0.080,1.017,1.343,1.099,1.587
-0.048,-0.075,1.013,1.770,0.854,0.488
-0.052,-0.088,1.027,2.747,-0.305,-1.160
-0.050,-0.094,1.031,2.991,-1.221,-2.686
-0.043,-0.119,1.037,3.357,-1.221,-3.662
-0.040,-0.123,1.021,2.930,-0.244,-3.357
-0.040,-0.132,1.025,1.831,0.000,-2.747
-0.040,-0.131,1.022,1.465,-0.061,-1.709
-0.041,-0.145,1.012,2.014,0.000,-0.671
-0.044,-0.152,1.029,2.319,-0.427,1.160
-0.043,-0.145,1.033,1.953,-0.488,2.991
-0.044,-0.134,1.039,1.221,0.183,4.883
-0.045,-0.110,1.031,0.183,0.854,5.798
-0.054,-0.097,1.025,-0.488,0.916,6.165
-0.059,-0.080,1.023,-0.244,0.061,5.310
-0.061,-0.087,1.021,0.610,-0.916,3.723
-0.062,-0.104,1.025,1.099,-1.221,2.380
-0.053,-0.109,1.026,0.916,-0.854,2.014
-0.048,-0.117,1.013,1.465,-0.244,1.831
-0.047,-0.133,1.021,2.075,-0.366,2.258
-0.046,-0.141,1.017,1.526,-0.793,3.052
-0.041,-0.143,1.030,0.305,-0.916,4.150
-0.045,-0.133,1.032,0.122,-1.160,5.310
-0.050,-0.106,1.033,0.305,-0.916,6.226
-0.060,-0.098,1.020,0.549,-0.305,6.409
-0.063,-0.094,1.019,0.671,-0.122,5.920
-0.055,-0.088,1.012,0.793,0.427,5.249
-0.045,-0.082,0.997,0.916,0.793,4.517
-0.039,-0.087,0.998,1.404,-0.183,3.601
-0.044,-0.100,1.004,2.319,-1.648,2.563
-0.052,-0.117,1.016,2.502,-2.502,2.136
-0.055,-0.137,1.020,2.380,-2.747,2.258
-0.052,-0.175,1.042,2.380,-2.808,3.357
-0.048,-0.169,1.036,1.953,-1.709,6.226
-0.044,-0.136,1.031,1.343,-0.610,9.033
-0.040,-0.106,1.018,1.648,-0.427,10.071
-0.043,-0.112,1.025,1.587,-0.977,10.071
-0.039,-0.105,1.033,1.160,-1.099,10.071
-0.036,-0.108,1.020,1.648,-0.549,9.949
-0.034,-0.114,1.012,3.113,-0.732,10.010
-0.039,-0.127,1.002,3.662,-1.526,10.132
-0.021,-0.101,1.033,3.357,-3.479,10.986
-0.030,-0.104,1.026,3.052,-3.601,10.803
-0.032,-0.107,1.023,2.930,-3.174,9.888
-0.036,-0.099,1.039,3.784,-3.906,10.010
-0.037,-0.077,1.040,6.226,-3.723,9.644
-0.053,-0.077,1.048,7.568,-3.540,8.240
-0.059,-0.076,1.064,7.141,-3.113,6.348
-0.055,-0.058,1.069,7.324,-1.892,4.395
-0.052,-0.038,1.061,9.155,-0.549,1.343
-0.010,0.083,1.072,11.902,0.427,-3.174
-0.036,0.271,1.026,11.658,3.357,-12.207
-0.051,0.585,0.959,7.141,4.150,-29.297
-0.128,0.792,0.938,0.244,-1.831,-56.763
-0.247,1.078,0.954,-10.925,-10.620,-96.985
-0.344,1.483,0.881,-18.188,-20.386,-150.024
-0.523,1.697,0.764,-19.653,-35.217,-226.501
-0.792,1.650,0.599,3.906,-60.181,-316.589
-1.004,0.960,0.922,39.307,-100.220,-412.964
-1.099,0.402,1.189,86.243,-99.915,-474.060
-0.980,0.003,1.406,133.301,-61.890,-494.873
-0.820,-0.468,1.384,141.724,-5.371,-504.517
-0.640,-0.904,1.175,133.057,51.270,-498.657
-0.500,-1.342,1.039,95.642,87.585,-476.135
-0.443,-1.604,1.185,52.368,92.712,-442.810

-0.233,-1.880,1.150,7.935,103.699,-332.642
-0.160,-1.584,0.897,-18.799,118.286,-229.858
-0.122,-1.148,0.746,-44.189,115.173,-130.188
-0.096,-0.777,0.686,-55.420,99.731,-60.364
0.002,-0.452,0.666,-50.720,75.623,-17.395
-0.164,-0.336,0.735,-33.569,42.053,6.897
-0.163,0.007,0.836,-22.644,8.240,21.851
-0.130,-0.045,1.030,-5.554,-16.968,9.399
-0.110,-0.158,1.133,-1.648,-21.912,-3.601
-0.095,-0.112,1.086,-7.568,-11.963,1.099
-0.096,-0.081,1.074,-7.324,-5.066,6.653
-0.110,-0.146,1.094,-1.160,-3.662,7.812
-0.098,-0.192,1.069,5.554,-0.977,11.536
-0.073,-0.147,1.027,11.230,1.099,19.653
-0.045,-0.098,1.001,17.334,-0.244,25.879
-0.029,-0.055,1.007,23.682,-3.296,28.748
-0.011,-0.010,1.020,24.658,-4.944,28.748
-0.002,-0.017,1.008,23.560,-4.517,25.085
-0.010,-0.019,1.002,21.912,-4.395,21.484
-0.032,0.027,0.989,18.250,-4.456,19.165
-0.051,0.039,0.956,8.545,-4.395,14.160
-0.062,0.038,0.973,-0.427,-5.188,8.057
-0.076,-0.013,1.012,-5.127,-6.592,2.441
-0.084,-0.078,1.023,-4.883,-5.188,-0.427
-0.078,-0.090,1.013,-3.113,-2.930,1.404
-0.067,-0.082,1.011,-0.916,-0.732,4.639
-0.057,-0.089,1.003,2.258,0.732,6.775
-0.046,-0.100,0.992,5.371,1.465,8.240
-0.051,-0.116,0.996,6.775,1.038,9.705
-0.055,-0.149,1.001,7.324,-0.183,10.681
-0.055,-0.115,1.001,8.179,-1.404,13.428
-0.059,-0.081,0.996,8.850,-2.380,14.709
-0.068,-0.079,0.990,7.996,-2.869,13.123
-0.068,-0.064,0.987,6.042,-3.601,11.963
-0.069,-0.064,1.000,4.028,-4.089,10.681
-0.070,-0.090,1.009,3.540,-4.211,8.484
-0.064,-0.105,1.007,4.211,-3.967,8.179
-0.055,-0.086,1.021,4.822,-3.784,8.911
-0.055,-0.099,1.013,4.700,-3.174,8.179
-0.064,-0.125,1.014,3.052,-2.136,7.202
-0.067,-0.135,1.018,1.404,-1.648,7.507
-0.062,-0.120,1.006,2.380,-1.160,9.399
-0.054,-0.099,1.007,4.211,-1.221,11.169
-0.057,-0.083,1.012,4.517,-1.648,11.597
-0.065,-0.079,1.005,3.296,-1.282,11.169
-0.070,-0.091,1.000,1.404,-0.854,10.132
-0.066,-0.090,0.991,0.366,-1.709,9.949
-0.066,-0.079,0.996,0.671,-3.357,9.827
-0.071,-0.079,1.009,1.343,-4.517,9.216
-0.079,-0.062,1.029,0.488,-5.127,8.667
-0.083,-0.067,1.057,-2.686,-5.005,7.385
-0.091,-0.079,1.072,-4.272,-4.211,5.310
-0.086,-0.092,1.072,-3.296,-3.296,4.395
-0.069,-0.093,1.042,-0.977,-2.258,4.333
-0.051,-0.079,1.015,-0.244,-1.343,4.395
-0.045,-0.073,1.026,0.061,-1.953,3.601
-0.041,-0.092,1.022,1.038,-1.892,1.770
-0.043,-0.108,1.014,1.282,-1.221,0.427
-0.048,-0.107,1.000,0.977,-0.488,0.793
-0.051,-0.093,0.999,0.122,-1.343,1.099
-0.051,-0.085,1.005,-1.709,-2.869,0.122
-0.057,-0.099,1.026,-3.540,-3.967,-1.526
-0.066,-0.121,1.044,-4.150,-4.272,-2.625
-0.064,-0.129,1.057,-2.686,-4.028,-2.258
-0.064,-0.127,1.063,-0.732,-3.296,-0.916
-0.055,-0.111,1.041,-0.061,-1.770,0.366
-0.052,-0.099,1.038,0.366,-0.671,1.099
-0.060,-0.119,1.043,0.977,-0.366,0.793
-0.058,-0.127,1.044,1.953,-0.122,1.038
-0.057,-0.119,1.041,2.441,0.183,2.075
-0.057,-0.112,1.039,2.319,0.488,2.502
-0.054,-0.092,1.021,1.770,0.671,2.625
-0.051,-0.073,1.010,-0.183,0.549,2.380
-0.051,-0.079,1.015,-1.709,-0.549,1.099
-0.056,-0.106,1.033,-1.953,-1.770,-0.122
-0.063,-0.123,1.048,-2.441,-1.953,0.061
-0.062,-0.117,1.050,-1.526,-1.038,1.343
-0.056,-0.109,1.045,0.000,-0.488,2.625
-0.056,-0.111,1.037,-0.793,0.183,3.418
-0.055,-0.101,1.041,-3.601,0.549,4.211
-0.057,-0.089,1.043,-5.371,0.427,4.822
-0.067,-0.081,1.036,-6.409,0.549,4.883
-0.080,-0.070,1.032,-6.714,0.427,4.517
-0.081,-0.058,1.041,-7.385,0.061,3.723
-0.074,-0.065,1.062,-8.423,-0.549,2.563
-0.080,-0.061,1.065,-16.418,0.366,2.258
-0.081,-0.059,1.036,-14.526,3.357,2.075
-0.080,-0.100,1.051,-6.348,2.380,0.183
-0.058,-0.095,1.059,-0.183,0.977,1.221
-0.051,-0.069,1.044,2.625,1.892,3.052
-0.048,-0.072,1.013,4.395,2.686,2.319
-0.044,-0.070,1.004,6.592,1.526,1.648
-0.049,-0.065,1.030,8.911,-1.038,1.465
-0.054,-0.066,1.044,9.460,-1.892,0.916
-0.057,-0.068,1.034,8.484,-1.038,0.244
-0.059,-0.079,1.016,8.179,-0.427,-0.427
-0.061,-0.086,1.013,9.705,-0.977,-0.610
-0.061,-0.093,1.014,13.306,-1.831,-0.244
-0.064,-0.109,1.015,17.151,-2.441,0.427
-0.050,-0.114,1.009,20.020,-2.502,1.709
-0.042,-0.101,1.021,22.400,-2.686,3.784
-0.045,-0.141,1.037,25.208,-2.686,4.700
-0.056,-0.153,1.043,31.982,-2.014,6.836
-0.051,-0.114,1.064,39.551,-1.770,11.597
-0.047,-0.085,1.062,48.462,-0.977,13.489
-0.033,-0.105,1.031,54.443,1.282,11.963
-0.037,-0.127,1.001,54.626,3.296,10.620
-0.046,-0.125,1.004,54.321,3.174,10.864
-0.045,-0.131,1.003,52.307,2.869,10.315
-0.039,-0.130,1.018,45.227,3.357,8.118
-0.043,-0.173,1.034,40.527,4.211,4.883
-0.042,-0.236,1.006,42.053,5.615,2.808
-0.043,-0.228,0.999,41.138,6.042,4.700
-0.022,-0.175,1.028,40.466,4.639,7.324
-0.031,-0.169,0.995,43.762,3.113,6.042
-0.034,-0.169,0.991,36.926,3.235,3.479
-0.038,-0.222,1.001,37.354,1.526,0.000
-0.055,-0.274,1.007,46.448,-0.549,-1.831
-0.052,-0.254,1.050,54.871,-1.221,0.549

-0.471,-1.564,0.786,-6.470,-60.242,171.814
-0.366,-1.022,1.080,34.668,-93.872,242.310
-0.201,-0.374,1.248,60.242,-109.314,297.607
-0.040,0.128,1.444,55.786,-92.529,316.284
-0.146,0.059,1.270,23.987,-58.044,310.303
-0.250,-0.026,0.986,4.456,-17.822,291.504
-0.225,0.369,0.903,-20.630,-10.925,291.260
-0.238,0.617,0.843,-51.392,-11.108,274.231
-0.329,0.458,0.874,-39.856,-21.484,221.375
-0.305,0.287,0.888,-30.273,-34.363,170.959
-0.273,0.226,0.993,-23.865,-53.101,145.630
-0.269,0.015,1.102,-23.682,-64.880,120.789
-0.197,-0.049,1.267,-26.306,-64.941,106.384
-0.152,0.045,1.215,-15.686,-51.819,101.868
-0.123,0.040,1.246,-11.780,-40.039,90.149
-0.106,0.032,1.120,-13.733,-23.010,79.163
-0.088,0.064,1.048,-20.264,-10.925,69.336
-0.081,0.068,1.001,-18.494,-5.493,56.152
-0.069,0.069,0.961,-11.475,-4.395,42.847
-0.047,0.096,0.935,-13.733,-4.822,30.640
-0.021,0.184,1.042,-14.038,-9.460,18.677
-0.039,0.130,1.079,1.648,-12.634,1.587
-0.067,-0.010,1.051,7.935,-8.545,-15.808
-0.083,-0.074,1.074,6.531,-5.310,-26.672
-0.082,-0.115,1.055,5.310,-1.404,-33.447
-0.101,-0.194,1.031,1.892,1.709,-38.452
-0.087,-0.238,1.036,-5.127,2.869,-39.429
-0.101,-0.310,1.027,-11.047,2.625,-38.635
-0.105,-0.370,0.998,-17.517,4.761,-35.156
-0.093,-0.331,1.023,-20.142,3.357,-27.161
-0.089,-0.304,1.021,-18.127,2.380,-20.264
-0.104,-0.259,0.978,-13.916,2.930,-13.855
-0.103,-0.197,0.984,-10.010,1.038,-8.667
-0.103,-0.132,1.005,-6.531,-1.709,-6.409
-0.109,-0.117,1.008,-4.578,-1.892,-7.446
-0.116,-0.133,1.019,-4.272,-1.709,-9.521
-0.126,-0.153,1.040,-4.028,-2.014,-11.292
-0.130,-0.160,1.041,-2.380,-1.160,-12.451
-0.143,-0.214,1.028,-1.892,0.305,-13.184
-0.130,-0.271,1.030,-4.761,1.221,-12.451
-0.107,-0.277,1.062,-7.141,0.488,-8.301
-0.088,-0.255,1.076,-8.240,1.099,-3.662
-0.087,-0.230,1.055,-8.972,3.662,0.793
-0.079,-0.190,1.040,-8.728,5.127,4.395
-0.083,-0.162,1.011,-6.531,5.554,6.775
-0.087,-0.128,1.000,-4.211,4.761,7.629
-0.095,-0.093,0.988,-2.991,3.174,6.897
-0.097,-0.073,0.976,-2.319,1.709,4.211
-0.100,-0.081,1.004,-1.648,-1.221,0.427
-0.105,-0.141,1.036,-2.014,-2.380,-2.869
-0.095,-0.188,1.066,-3.784,-1.343,-4.089
-0.084,-0.180,1.073,-5.249,0.183,-2.930
-0.088,-0.209,1.041,-6.592,2.869,-1.770
-0.078,-0.215,1.010,-7.690,5.127,0.427
-0.061,-0.178,1.000,-6.714,5.005,4.395
-0.071,-0.169,1.028,-6.165,3.906,6.958
-0.063,-0.140,1.058,-7.080,3.418,8.118
-0.067,-0.138,1.025,-7.324,5.615,8.850
-0.077,-0.141,1.007,-6.958,6.653,8.728
-0.084,-0.117,0.991,-5.676,5.798,9.033
-0.081,-0.086,0.990,-3.784,4.211,8.484
-0.086,-0.108,0.983,-1.587,2.563,6.592
-0.081,-0.170,0.986,-1.404,1.343,4.822
-0.074,-0.155,1.011,-1.282,-0.122,5.920
-0.064,-0.141,1.034,-0.183,-1.282,7.446
-0.068,-0.175,1.030,-0.793,-0.916,7.812
-0.068,-0.209,1.028,-2.380,0.061,9.155
-0.063,-0.190,1.036,-3.113,0.488,12.451
-0.060,-0.179,1.042,-2.686,1.038,15.259
-0.062,-0.149,1.044,-2.380,1.648,17.334
-0.068,-0.110,1.020,-1.343,3.052,18.494
-0.084,-0.084,1.001,-0.183,3.601,18.250
-0.090,-0.076,0.997,-0.732,3.235,16.663
-0.089,-0.100,1.005,-1.587,2.075,14.282
-0.090,-0.117,1.004,-0.977,1.160,12.268
-0.089,-0.122,1.013,0.610,0.671,11.597
-0.081,-0.136,1.047,1.099,0.122,11.169
-0.063,-0.118,1.038,0.610,1.343,11.719
-0.051,-0.121,1.010,0.244,2.441,11.230
-0.051,-0.131,1.001,0.305,1.770,10.559
-0.056,-0.140,1.008,0.305,0.061,10.071
-0.063,-0.123,1.024,0.854,-1.343,9.705
-0.073,-0.091,1.016,2.563,-1.343,9.216
-0.090,-0.105,1.015,4.211,-1.648,7.507
-0.103,-0.154,1.025,3.357,-1.831,5.859
-0.087,-0.158,1.023,1.587,-1.282,6.348
-0.074,-0.138,1.009,2.075,-1.465,7.324
-0.069,-0.123,1.007,3.357,-2.258,7.690
-0.078,-0.130,1.022,3.601,-2.930,7.507
-0.067,-0.139,1.019,3.357,-2.197,6.958
-0.074,-0.143,1.002,5.310,-1.404,7.751
-0.072,-0.158,1.002,7.996,-1.648,8.972
-0.070,-0.152,1.017,7.690,-2.502,9.949
-0.069,-0.148,1.013,7.690,-2.625,10.925
-0.068,-0.150,1.019,7.263,-2.747,11.719
-0.062,-0.135,1.028,7.019,-3.174,12.939
-0.072,-0.124,1.021,7.874,-2.869,13.000
-0.077,-0.135,1.027,8.118,-2.563,12.207
-0.079,-0.149,1.053,6.592,-2.197,11.902
-0.077,-0.135,1.036,7.324,-0.427,12.512
-0.078,-0.140,0.993,9.216,1.282,12.817
-0.069,-0.159,1.002,9.399,0.000,12.756
-0.045,-0.181,1.038,9.216,-1.648,13.611
-0.019,-0.215,1.026,12.573,-1.709,14.038
-0.015,-0.191,1.034,16.357,-1.953,15.076
-0.012,-0.139,1.055,20.569,-2.380,16.479
0.000,-0.045,1.064,25.574,-1.221,16.357
-0.033,0.136,1.055,29.236,1.404,13.611
-0.093,0.526,1.008,27.832,4.395,4.028
-0.206,1.087,0.991,16.479,2.869,-23.621
-0.510,1.507,0.735,6.653,-1.648,-87.952
-0.744,1.799,0.550,-2.380,-18.921,-187.683
-0.932,2.190,0.866,4.456,-68.298,-290.161
-1.239,2.065,1.298,16.479,-98.083,-407.471
-1.631,1.373,1.423,26.123,-75.500,-515.930
-1.859,0.505,1.335,57.861,-28.870,-580.444
-1.807,-0.203,1.315,96.497,17.151,-604.126
-1.544,-0.959,1.227,109.985,65.125,-610.352
-1.177,-1.629,1.230,116.150,97.473,-588.013

-0.307,-3.018,1.545,37.048,156.860,-457.336
0.147,-2.621,0.945,1.953,191.650,-301.575
0.335,-1.573,0.190,-30.212,201.599,-147.339
0.342,-0.818,-0.074,-57.800,155.273,-68.298
0.215,-0.716,0.300,-70.313,73.853,-56.824
0.083,-0.750,0.808,-72.998,11.292,-53.162
0.006,-0.617,1.015,-72.083,-11.108,-30.151
-0.014,-0.466,0.949,-62.073,-12.146,-5.371
-0.001,-0.357,0.933,-47.974,-16.663,11.047
-0.005,-0.263,0.946,-37.048,-21.790,22.583
-0.039,-0.196,0.944,-28.564,-21.667,31.738
-0.093,-0.118,1.026,-21.729,-21.301,39.124
-0.116,-0.060,1.070,-17.273,-17.090,43.518
-0.104,-0.041,1.012,-11.536,-10.742,46.753
-0.080,0.072,1.008,-3.723,-8.789,50.293
-0.080,0.018,1.023,4.456,-9.705,45.959
-0.080,-0.015,1.051,10.315,-10.437,41.199
-0.071,0.011,1.059,11.230,-9.888,40.405
-0.077,0.009,1.059,10.742,-9.033,37.537
-0.084,0.015,1.042,10.010,-8.118,34.668
-0.086,0.047,1.013,8.789,-7.629,31.738
-0.078,0.077,1.013,7.141,-8.362,27.039
-0.077,0.107,1.029,3.906,-8.972,22.156
-0.092,0.058,1.002,0.366,-6.470,16.418
-0.100,0.054,0.990,-0.854,-4.639,13.489
-0.106,0.070,0.992,2.014,-4.333,12.634
-0.120,0.073,1.010,5.066,-4.333,10.498
-0.128,0.063,1.031,5.737,-4.089,7.874
-0.126,0.049,1.046,5.188,-3.235,4.944
-0.118,0.036,1.060,5.676,-2.686,2.686
-0.101,0.016,1.052,5.737,-0.916,0.305
-0.095,-0.029,1.030,4.700,0.916,-2.319
-0.095,-0.047,1.014,3.906,1.465,-3.052
-0.100,-0.040,1.002,2.991,0.732,-2.869
-0.103,-0.042,1.022,0.916,-0.427,-3.418
-0.099,-0.069,1.049,0.244,-1.404,-4.272
-0.093,-0.092,1.029,-0.366,-0.244,-3.723
-0.086,-0.104,1.000,-0.610,1.343,-1.892
-0.075,-0.063,1.002,1.221,-0.061,0.916
-0.077,-0.036,1.013,1.343,-1.282,2.197
-0.088,-0.047,1.021,0.793,-2.136,1.526
-0.094,-0.050,1.032,0.610,-2.930,0.671
-0.094,-0.041,1.047,2.014,-3.174,0.183
-0.100,-0.046,1.040,3.174,-2.258,0.122
-0.094,-0.037,1.031,3.723,-0.854,0.427
-0.082,-0.009,1.013,4.272,0.122,1.160
-0.085,-0.009,1.008,3.357,0.671,0.488
-0.081,-0.031,1.000,2.014,0.305,-1.465
-0.078,-0.029,1.001,0.488,-0.610,-2.014
-0.077,-0.033,1.009,-0.061,-1.465,-2.563
-0.084,-0.026,1.016,-0.244,-1.587,-3.174
-0.093,-0.034,1.038,-0.488,-1.343,-3.906
-0.098,-0.034,1.028,0.671,0.183,-4.028
-0.087,-0.014,1.007,2.014,1.343,-3.357
-0.076,-0.002,1.025,1.831,0.671,-3.967
-0.080,-0.047,1.049,0.732,0.671,-6.226
-0.070,-0.073,1.022,0.366,1.953,-7.080
-0.058,-0.065,1.009,1.953,2.197,-6.348
-0.068,-0.083,1.036,2.808,0.732,-6.165
-0.079,-0.094,1.057,3.723,0.122,-6.165
-0.067,-0.079,1.060,5.798,0.916,-5.249
-0.068,-0.071,1.036,7.141,2.441,-4.211
-0.067,-0.086,1.030,5.371,3.052,-4.456
-0.064,-0.091,1.019,4.333,2.563,-4.272
-0.062,-0.096,1.020,3.906,1.770,-3.174
-0.064,-0.101,1.040,4.089,0.366,-2.258
-0.059,-0.068,1.047,4.761,-0.183,-0.977
-0.057,-0.047,1.032,4.578,0.183,-0.793
-0.061,-0.029,1.025,2.441,-0.183,-2.136
-0.073,-0.053,1.032,1.038,-1.221,-4.150
-0.083,-0.096,1.051,0.610,-2.014,-5.188
-0.077,-0.105,1.058,2.502,-2.197,-3.906
-0.060,-0.088,1.062,4.333,-2.075,-1.465
-0.055,-0.089,1.051,4.211,-1.343,0.000
-0.052,-0.087,1.036,2.625,-0.244,0.977
-0.048,-0.064,1.035,0.977,0.122,2.197
-0.056,-0.062,1.036,0.000,0.244,2.014
-0.060,-0.062,1.034,-0.854,0.244,1.221
-0.065,-0.056,1.046,-0.488,-0.427,1.221
-0.069,-0.065,1.055,0.854,0.061,0.854
-0.049,-0.055,1.055,2.563,0.793,1.160
-0.037,-0.030,1.041,3.601,1.526,1.709
-0.037,-0.059,1.021,3.601,2.380,0.183
-0.039,-0.039,1.045,0.610,1.770,-0.732
-0.056,-0.066,1.029,-0.610,1.831,-1.404
-0.053,-0.069,1.026,0.000,2.380,-2.197
-0.049,-0.012,1.045,0.549,2.197,-1.160
-0.070,-0.059,1.027,1.404,3.113,-2.136
-0.072,-0.058,1.032,0.916,3.540,-2.441
-0.068,-0.054,1.032,1.587,3.052,-1.221
-0.069,-0.023,1.053,1.465,2.563,-0.671
-0.078,-0.021,1.055,1.160,2.319,-1.831
-0.075,-0.002,1.046,0.977,3.662,-3.174
-0.065,-0.002,1.045,0.610,5.371,-4.700
-0.059,-0.048,1.026,-0.610,6.836,-6.287
-0.053,-0.073,0.999,-2.380,8.179,-6.958
-0.034,-0.015,1.007,-5.127,8.057,-5.859
-0.036,0.017,1.022,-10.071,8.850,-6.165
-0.042,0.007,1.024,-13.672,11.169,-9.399
-0.059,0.002,1.019,-16.602,13.611,-12.512
-0.072,-0.015,1.018,-16.968,15.259,-14.465
-0.069,-0.081,1.016,-16.052,15.686,-15.503
-0.041,-0.071,0.997,-16.235,15.747,-12.085
-0.018,-0.284,1.044,-16.418,14.771,-4.578
-0.049,0.168,0.997,-35.889,21.423,11.047
-0.046,0.072,0.908,-30.334,24.658,4.211
-0.030,-0.009,1.053,-14.465,12.512,-8.484
-0.031,-0.033,1.077,-13.245,11.780,-10.925
-0.033,-0.019,1.021,-14.404,16.724,-9.827
-0.029,0.001,1.019,-9.155,15.747,-8.911
-0.021,0.027,0.965,-8.789,15.198,-9.155
-0.040,0.028,0.955,-12.512,11.230,-9.094
-0.030,0.027,0.961,-11.902,4.883,-10.498
-0.048,0.004,1.003,-7.812,-0.793,-11.169
-0.049,0.042,0.988,-2.441,-3.113,-8.667
-0.045,-0.000,0.960,1.953,-4.822,-7.446
-0.057,-0.109,0.965,1.770,-7.507,-6.775
-0.106,-0.479,1.001,2.747,-10.437,-4.822
-0.189,-1.058,0.837,2.502,-11.780,11.780

-0.298,-1.654,1.025,30.457,-38.513,125.854
-0.420,-1.547,1.149,47.180,-47.852,207.397
-0.451,-1.397,1.355,36.804,-45.593,284.851
-0.230,-0.736,1.485,40.833,-40.100,361.084
-0.116,-0.061,1.351,53.650,-29.541,414.429
-0.072,0.216,1.270,36.194,-8.911,421.326
-0.095,0.519,1.188,15.686,11.963,410.522
-0.139,0.653,0.979,-0.549,39.795,377.075
-0.237,0.684,0.539,-13.489,57.983,329.163
-0.401,0.588,0.359,-13.977,38.452,281.433
-0.558,0.385,0.517,-0.732,-7.385,240.479
-0.652,0.346,0.655,10.193,-44.312,216.919
-0.589,0.522,0.823,22.888,-74.829,205.505
-0.473,0.704,1.130,32.532,-99.426,184.387
-0.340,0.579,1.290,27.344,-106.445,147.644
-0.231,0.562,1.381,27.954,-93.323,112.915
-0.197,0.387,1.257,5.066,-56.641,82.092
-0.132,0.255,1.203,2.319,-35.095,55.176
-0.109,0.070,1.067,6.775,-15.808,36.194
-0.046,-0.021,0.970,4.333,-5.005,29.358
-0.047,-0.059,0.888,0.305,-5.676,29.419
-0.019,-0.122,0.906,-5.310,-15.198,28.259
0.019,0.000,1.014,-9.399,-23.315,29.480
0.008,0.097,1.060,-8.484,-22.888,29.175
-0.056,0.022,1.098,-3.296,-19.470,18.982
-0.115,-0.026,1.113,1.892,-13.367,12.268
-0.158,-0.086,1.080,1.709,-3.906,9.338
-0.153,-0.125,1.074,-0.549,2.563,7.690
-0.141,-0.177,1.062,-0.427,4.456,7.202
-0.144,-0.209,1.067,-1.587,4.395,8.362
-0.101,-0.165,1.099,-3.113,3.357,12.329
-0.097,-0.109,1.106,-1.465,3.662,15.930
-0.111,-0.106,1.102,0.061,5.127,15.930
-0.121,-0.100,1.120,-0.488,7.202,15.442
-0.125,-0.068,1.137,-0.305,9.216,15.503
-0.149,-0.090,1.106,1.221,11.780,13.123
-0.130,-0.110,1.073,0.000,14.526,11.902
-0.093,-0.103,1.044,-1.038,15.320,12.512
-0.080,-0.098,1.012,-0.488,13.489,11.475
-0.064,-0.045,0.995,1.648,10.315,11.658
-0.055,-0.025,0.957,3.479,6.897,10.681
-0.085,-0.071,0.971,4.089,2.258,8.545
-0.107,-0.093,1.016,4.639,-2.502,7.080
-0.118,-0.066,1.072,6.409,-4.761,7.507
-0.118,-0.042,1.098,6.775,-4.517,6.287
-0.114,-0.037,1.095,8.545,-2.502,4.333
-0.127,-0.086,1.110,9.827,0.183,1.709
-0.127,-0.117,1.119,7.935,2.869,0.549
-0.120,-0.154,1.104,4.822,6.897,1.160
-0.116,-0.148,1.076,2.380,10.376,2.747
-0.102,-0.113,1.034,1.953,11.841,5.249
-0.109,-0.117,1.012,0.916,11.597,6.104
-0.106,-0.115,1.009,0.183,10.559,6.714
-0.105,-0.091,0.999,1.221,9.766,7.935
-0.099,-0.069,0.987,2.502,8.850,8.362
-0.098,-0.079,1.010,3.357,6.287,7.141
-0.102,-0.109,1.030,3.723,4.395,5.554
-0.101,-0.105,1.039,2.991,3.540,5.249
-0.101,-0.099,1.031,3.906,3.174,4.944
-0.097,-0.089,1.022,5.920,2.869,4.944
-0.103,-0.069,1.021,7.629,2.808,4.944
-0.112,-0.054,1.026,8.423,3.174,4.272
-0.112,-0.049,1.033,8.911,3.723,2.502
-0.124,-0.058,1.014,8.789,4.822,-0.122
-0.159,-0.063,0.927,4.028,6.104,-2.197
-0.109,-0.092,1.137,0.793,1.709,-3.845
-0.128,-0.117,1.091,9.460,0.305,-6.531
-0.106,-0.090,1.013,4.517,9.216,-6.287
-0.096,-0.156,1.075,2.625,6.287,-7.690
-0.095,-0.154,1.035,2.014,9.399,-6.165
-0.067,-0.141,1.039,-0.122,10.986,-4.089
-0.039,-0.111,1.011,-1.953,12.085,-2.197
-0.032,-0.122,0.976,-1.892,12.268,-1.709
-0.023,-0.091,0.974,-1.221,8.667,-1.282
-0.021,-0.058,0.968,0.305,5.249,-1.343
-0.035,-0.057,0.967,1.892,1.770,-3.296
-0.054,-0.075,0.998,2.808,-1.099,-4.456
-0.055,-0.084,1.025,3.174,-1.831,-5.066
-0.056,-0.081,1.044,4.211,-1.282,-4.883
-0.054,-0.073,1.040,4.700,-0.183,-4.944
-0.045,-0.092,1.029,4.944,0.854,-5.249
-0.070,-0.150,0.956,3.967,1.221,-5.188
-0.009,-0.098,0.972,-1.770,1.282,-1.343
-0.006,-0.113,1.084,5.005,-5.676,0.122
-0.022,-0.045,0.955,6.104,-1.282,1.709
-0.019,-0.046,0.972,2.136,-1.770,1.770
-0.059,-0.085,0.989,3.845,-5.188,-0.305
-0.073,-0.109,1.032,5.310,-6.104,0.427
-0.075,-0.121,1.063,4.578,-5.005,1.526
-0.057,-0.094,1.035,3.662,-1.282,2.808
-0.048,-0.109,1.001,3.662,2.075,2.197
-0.038,-0.091,0.980,3.235,1.709,3.235
-0.024,-0.066,0.979,3.418,-0.793,3.296
-0.027,-0.075,0.983,5.798,-3.296,2.869
-0.036,-0.072,0.985,8.911,-4.456,1.709
-0.034,-0.040,0.995,11.719,-6.104,1.465
-0.034,-0.050,1.006,13.672,-7.935,-0.854
-0.043,-0.097,1.033,14.160,-8.789,-3.540
-0.049,-0.141,1.069,13.000,-8.728,-4.517
-0.036,-0.158,1.099,10.437,-8.362,-4.578
-0.047,-0.155,1.099,7.507,-7.202,-4.028
-0.039,-0.145,1.057,6.287,-3.723,-2.258
-0.021,-0.129,1.010,7.324,-0.427,-0.061
-0.032,-0.122,0.918,6.226,2.014,1.343
0.020,-0.116,0.914,4.517,0.427,3.296
0.015,-0.141,0.979,10.193,-7.507,2.563
-0.012,-0.173,0.959,8.179,-7.263,3.967
-0.016,-0.245,0.974,5.432,-7.935,5.127
-0.033,-0.216,0.969,6.958,-10.559,8.911
-0.045,-0.181,0.980,10.315,-12.085,12.451
-0.062,-0.138,0.992,11.536,-13.123,14.282
-0.089,-0.141,0.997,10.742,-13.123,13.611
-0.116,-0.114,1.025,9.888,-14.038,12.573
-0.148,-0.112,1.061,9.216,-13.550,10.925
-0.161,-0.137,1.072,7.141,-10.620,8.545
-0.153,-0.122,1.066,6.836,-6.287,8.484
-0.140,-0.124,1.029,8.606,-1.831,8.545
-0.125,-0.133,0.967,10.742,1.526,8.057
-0.114,-0.114,0.943,11.536,1.099,8.301

-0.597,1.786,0.800,-13.428,-10.925,-95.032
-0.967,2.179,0.649,-37.964,-28.076,-185.242
-1.234,2.268,0.934,-25.635,-68.298,-314.880
-1.565,1.834,1.520,13.245,-97.046,-449.219
-1.802,1.131,1.694,55.481,-60.242,-538.391
-1.852,0.259,1.593,89.600,11.108,-595.642
-1.678,-0.584,1.468,106.079,74.158,-609.741
-1.294,-1.382,1.161,103.271,128.296,-584.961
-0.868,-2.229,0.974,83.923,157.288,-543.091
-0.332,-2.962,0.953,55.664,160.095,-474.670
0.081,-2.761,0.768,20.020,158.264,-336.792
0.259,-1.952,0.506,-26.611,151.184,-196.045
0.253,-1.285,0.343,-65.857,125.366,-111.450
0.144,-0.978,0.401,-89.050,85.205,-69.702
-0.002,-0.730,0.658,-93.872,40.833,-37.537
-0.052,-0.496,0.883,-77.942,6.592,-9.216
-0.036,-0.313,1.048,-54.932,-12.207,11.169
-0.042,-0.231,1.127,-40.344,-17.090,20.447
-0.070,-0.164,1.111,-33.508,-14.709,26.489
-0.095,-0.152,1.073,-31.616,-11.230,30.884
-0.115,-0.147,1.079,-26.306,-11.414,33.508
-0.126,-0.145,1.161,-12.512,-14.648,38.269
-0.123,-0.098,1.158,3.418,-12.085,46.631
-0.120,-0.110,1.104,15.137,-7.019,52.002
-0.117,-0.163,1.022,17.944,-4.089,56.030
-0.153,-0.306,0.925,13.245,-3.540,62.561
-0.269,-0.742,0.824,0.793,-4.517,71.655
-0.472,-1.424,0.666,-17.029,-8.301,95.520
-0.689,-1.952,0.555,-2.747,-31.677,151.001
-0.783,-2.223,0.626,41.138,-80.994,233.276
-0.777,-2.056,0.806,98.389,-140.198,329.529
-0.693,-1.554,0.989,141.846,-186.523,427.917
-0.706,-0.755,1.382,138.855,-206.726,525.757
-0.560,0.278,1.847,90.027,-188.599,600.525
-0.417,1.187,1.912,26.184,-119.446,619.446
-0.346,1.637,1.445,-18.616,-29.785,565.369
-0.447,1.629,0.676,-40.344,28.076,462.219
-0.705,1.398,-0.124,-53.467,20.447,343.262
-0.861,1.008,0.419,-48.401,-70.435,238.037
-0.946,0.938,0.791,-44.495,-113.586,179.749
-0.880,0.648,0.967,-34.485,-108.337,129.639
-0.807,0.325,1.374,-18.921,-105.408,79.712
-0.608,0.227,1.619,-13.123,-75.256,62.134
-0.414,0.110,1.469,-10.986,-32.349,41.138
-0.260,-0.020,1.326,-11.780,4.211,19.775
-0.196,-0.086,1.149,-11.230,25.879,5.615
-0.171,-0.085,1.005,-10.437,37.292,-2.136
-0.176,-0.035,0.934,-8.545,39.856,-7.935
-0.194,-0.001,0.862,-4.517,37.903,-15.747
-0.199,-0.027,0.816,-3.540,32.959,-24.841
-0.193,-0.053,0.878,-2.380,22.949,-31.982
-0.224,-0.102,0.911,-0.427,16.479,-37.903
-0.228,-0.179,0.969,0.183,13.428,-41.138
-0.216,-0.247,0.973,-0.793,12.817,-40.161
-0.175,-0.286,0.975,-0.549,11.475,-36.011
-0.153,-0.319,0.996,2.869,5.615,-30.212
-0.152,-0.310,1.016,5.371,1.526,-24.292
-0.160,-0.273,1.044,6.042,-0.732,-20.081
-0.167,-0.227,1.064,5.188,-2.502,-18.066
-0.183,-0.198,1.093,4.883,-3.662,-18.005
-0.180,-0.204,1.114,5.188,-3.845,-19.165
-0.192,-0.220,1.129,5.493,-2.991,-20.264
-0.210,-0.269,1.127,4.761,-0.183,-20.386
-0.186,-0.302,1.122,0.854,4.089,-18.433
-0.153,-0.248,1.090,-1.526,7.996,-13.184
-0.133,-0.233,1.048,-2.136,10.254,-10.010
-0.126,-0.230,1.019,-2.747,10.620,-7.996
-0.137,-0.246,1.000,-2.075,9.949,-5.920
-0.124,-0.240,1.004,-2.808,9.155,-2.991
-0.121,-0.181,1.007,-3.174,8.362,1.343
-0.132,-0.146,1.023,-2.625,7.629,3.113
-0.144,-0.153,1.013,-1.831,8.179,2.563
-0.148,-0.142,1.000,-1.648,9.583,2.563
-0.179,-0.198,0.987,-1.648,9.460,1.709
-0.180,-0.197,0.985,-2.747,8.179,1.892
-0.182,-0.140,1.010,-2.625,5.127,3.479
-0.177,-0.117,1.016,-2.258,3.418,2.014
-0.178,-0.129,1.015,-1.282,2.869,-1.404
-0.179,-0.162,1.006,-0.122,2.380,-4.395
-0.171,-0.193,0.999,0.488,1.953,-5.432
-0.150,-0.174,1.010,0.183,1.038,-4.578
-0.149,-0.170,1.018,0.977,0.977,-3.784
-0.162,-0.211,1.010,1.282,2.014,-4.150
-0.151,-0.202,1.017,0.122,2.991,-2.686
-0.140,-0.176,1.017,0.122,3.601,-0.671
-0.132,-0.187,1.013,0.366,4.150,-0.183
-0.132,-0.189,1.001,0.366,4.700,0.427
-0.132,-0.158,1.000,1.343,4.089,1.404
-0.135,-0.126,1.001,2.686,3.113,1.282
-0.149,-0.141,1.008,2.747,2.380,-0.732
-0.155,-0.133,1.016,3.052,2.197,-2.319
-0.154,-0.118,1.023,4.272,2.686,-3.418
-0.166,-0.168,1.002,5.188,4.333,-5.371
-0.174,-0.261,0.990,2.686,6.287,-6.104
-0.150,-0.213,0.998,0.183,6.653,-2.686
-0.141,-0.117,0.991,0.916,6.165,0.610
-0.148,-0.084,0.984,1.770,5.981,-0.427
-0.161,-0.136,0.980,1.526,5.737,-4.150
-0.165,-0.154,0.974,1.770,5.676,-5.981
-0.157,-0.116,0.984,2.625,4.150,-5.981
-0.167,-0.119,1.001,3.906,1.892,-7.019
-0.173,-0.139,1.010,3.601,1.282,-9.155
-0.172,-0.131,1.018,3.601,1.282,-9.827
-0.176,-0.117,1.002,3.723,2.075,-10.620
-0.175,-0.117,0.995,3.174,2.686,-11.658
-0.175,-0.156,0.983,3.357,2.625,-13.000
-0.175,-0.190,0.993,3.174,1.343,-13.428
-0.162,-0.191,1.014,1.831,0.000,-12.390
-0.147,-0.171,1.028,0.732,-0.305,-10.925
-0.144,-0.164,1.015,0.793,0.305,-9.949
-0.137,-0.184,0.998,0.977,1.160,-9.644
-0.123,-0.183,0.997,1.099,0.671,-7.996
-0.110,-0.156,1.001,1.587,-0.854,-6.836
-0.106,-0.145,1.001,2.686,-2.136,-6.531
-0.108,-0.165,0.993,3.357,-3.113,-6.958
-0.111,-0.185,0.998,3.296,-3.967,-6.897
-0.111,-0.202,1.022,2.808,-5.676,-6.348
-0.107,-0.202,1.034,2.930,-6.592,-5.493
-0.109,-0.203,1.040,3.052,-6.165,-3.967

-0.673,1.651,1.187,2.075,-14.526,-237.427
-0.969,1.319,1.436,-6.165,-16.052,-331.787
-1.236,0.855,1.559,-7.996,4.517,-408.386
-1.295,0.285,1.602,-15.747,45.898,-450.928
-1.125,-0.241,1.603,-0.427,88.745,-466.797
-0.923,-0.781,1.270,48.218,132.202,-464.539
-0.757,-1.075,1.031,51.208,160.950,-444.580
-0.572,-1.400,0.659,26.611,175.781,-416.382
-0.345,-1.534,0.370,4.700,166.443,-373.596
-0.165,-1.428,0.366,-2.563,125.732,-306.519
-0.036,-1.151,0.518,-4.456,78.308,-234.314
0.005,-0.972,0.724,-9.094,39.978,-181.702
-0.036,-0.940,0.901,-13.367,16.968,-146.240
-0.058,-0.944,0.986,-14.832,9.888,-112.244
-0.041,-0.838,0.990,-11.475,8.118,-72.388
-0.004,-0.659,0.940,-5.310,6.531,-33.875
0.020,-0.535,0.901,0.244,0.488,-7.202
-0.015,-0.519,0.880,0.183,-7.507,11.108
-0.043,-0.498,0.873,0.366,-14.893,28.870
-0.072,-0.498,0.909,8.850,-24.231,46.692
-0.128,-0.575,0.888,16.479,-30.579,64.941
-0.192,-0.750,0.849,16.235,-35.095,85.632
-0.324,-1.002,0.786,11.536,-43.396,112.366
-0.480,-1.182,0.665,9.277,-55.054,151.306
-0.605,-1.157,0.585,17.090,-78.613,200.928
-0.651,-1.216,0.588,45.593,-116.394,244.934
-0.592,-1.106,0.825,71.289,-161.743,289.978
-0.453,-0.715,1.189,85.022,-194.397,345.215
-0.242,-0.342,1.460,72.021,-188.049,387.085
-0.180,0.039,1.425,31.677,-146.790,412.292
-0.207,0.167,1.328,-20.630,-91.187,417.053
-0.236,0.464,1.237,-52.917,-50.171,407.593
-0.375,0.674,0.909,-65.308,-20.325,376.282
-0.531,0.602,0.617,-79.041,-13.306,316.711
-0.641,0.588,0.529,-87.585,-35.217,263.000
-0.760,0.605,0.530,-87.158,-67.566,217.712
-0.759,0.359,1.102,-73.181,-101.929,170.227
-0.680,0.460,1.368,-52.673,-94.238,151.917
-0.643,0.345,1.390,-36.011,-54.199,135.193
-0.523,0.163,1.364,-26.672,-19.226,115.051
-0.391,0.010,1.171,-22.766,8.911,99.121
-0.297,-0.039,1.017,-19.348,25.696,87.646
-0.252,0.145,0.972,-20.020,28.320,82.581
-0.269,0.164,0.881,-22.034,26.489,64.270
-0.273,0.162,0.857,-23.376,20.386,44.128
-0.276,0.153,0.943,-22.766,9.094,25.757
-0.321,0.096,0.974,-20.996,3.052,9.583
-0.336,-0.005,1.062,-19.836,-1.099,-4.150
-0.311,0.008,1.119,-16.479,-1.221,-10.925
-0.289,-0.010,1.115,-12.878,4.761,-15.991
-0.251,-0.159,1.113,-13.733,12.207,-22.888
-0.208,-0.229,1.106,-14.160,18.433,-23.499
-0.190,-0.241,1.040,-9.827,24.475,-18.066
-0.160,-0.159,1.002,-5.920,27.588,-11.353
-0.126,-0.118,0.999,-4.150,26.489,-8.240
-0.111,-0.089,0.973,-3.235,25.513,-9.338
-0.104,-0.041,0.958,-0.793,23.010,-11.108
-0.090,-0.031,1.001,1.282,17.151,-16.785
-0.025,-0.081,1.046,1.465,11.780,-23.987
-0.068,-0.103,1.102,-0.854,8.423,-29.114
-0.083,-0.134,1.079,2.686,9.216,-30.396
-0.075,-0.182,1.090,3.845,11.597,-29.358
-0.064,-0.240,1.062,2.136,12.817,-27.100
-0.051,-0.260,1.032,0.244,14.709,-22.034
-0.042,-0.258,1.088,-3.418,12.634,-15.076
-0.073,-0.295,1.113,-8.118,12.024,-8.667
-0.082,-0.276,1.079,-9.766,15.564,-2.258
-0.074,-0.170,1.067,-7.080,17.395,5.737
-0.059,-0.085,1.034,-2.808,16.846,8.545
-0.047,-0.073,1.010,0.000,15.259,6.042
-0.034,-0.083,1.005,1.343,11.536,1.709
-0.034,-0.083,0.979,3.601,8.789,-1.404
-0.029,-0.055,0.975,6.348,5.432,-3.540
-0.040,-0.076,0.969,8.850,2.380,-5.981
-0.101,-0.211,0.996,8.423,0.183,-8.606
-0.129,-0.389,1.031,1.770,0.061,-8.057
-0.111,-0.370,1.082,-4.395,0.427,-0.244
-0.105,-0.256,1.060,-3.601,2.808,9.766
-0.123,-0.172,1.002,-0.244,5.249,15.869
-0.140,-0.161,0.960,1.343,4.944,17.517
-0.148,-0.131,0.969,2.197,1.831,17.883
-0.157,-0.083,0.982,3.418,-1.465,17.029
-0.180,-0.044,1.000,4.944,-3.784,14.282
-0.197,-0.040,1.032,6.714,-4.944,9.338
-0.199,-0.033,1.057,8.789,-4.395,4.639
-0.197,-0.052,1.043,11.780,-1.892,0.000
-0.189,-0.114,1.035,13.000,1.526,-4.700
-0.165,-0.160,1.036,11.841,4.456,-6.287
-0.148,-0.179,1.034,10.315,6.775,-5.859
-0.138,-0.170,1.013,8.972,8.728,-4.272
-0.109,-0.177,0.974,9.460,9.827,-1.465
-0.090,-0.200,0.944,10.193,8.850,1.770
-0.089,-0.179,0.942,10.132,4.517,4.456
-0.108,-0.137,0.992,10.010,-2.686,5.737
-0.145,-0.125,1.071,9.460,-9.766,3.784
-0.185,-0.144,1.156,7.751,-12.878,0.061
-0.205,-0.171,1.203,6.897,-10.864,-2.563
-0.194,-0.146,1.188,6.531,-5.249,-3.113
-0.183,-0.133,1.151,5.920,0.244,-4.395
-0.151,-0.089,1.121,5.432,4.700,-6.287
-0.162,-0.128,1.085,4.578,7.629,-9.338
-0.146,-0.174,1.077,1.709,10.315,-12.207
-0.108,-0.160,1.057,0.916,13.184,-10.864
-0.104,-0.151,1.005,2.014,16.602,-9.705
-0.096,-0.161,0.979,2.197,16.846,-9.277
-0.082,-0.147,0.957,0.610,16.052,-8.667
-0.063,-0.113,0.941,0.366,13.855,-7.935
-0.066,-0.116,0.943,1.526,10.071,-8.118
-0.066,-0.116,0.930,1.770,7.690,-8.057
-0.069,-0.116,0.946,2.502,4.333,-7.812
-0.069,-0.094,0.951,5.005,1.221,-7.202
-0.081,-0.071,0.939,7.935,-1.160,-7.202
-0.106,-0.127,0.957,7.385,-4.211,-9.949
-0.130,-0.175,1.001,4.395,-7.141,-12.146
-0.150,-0.190,1.042,3.296,-8.667,-11.963
-0.157,-0.170,1.093,2.991,-9.460,-12.146
-0.149,-0.148,1.134,3.235,-8.362,-12.573
-0.152,-0.226,1.105,3.540,-4.272,-14.221
-0.142,-0.260,1.092,1.648,-0.366,-13.550

-0.657,1.627,0.993,-40.283,0.427,-124.207
-0.775,1.835,1.086,-58.899,-9.949,-222.290
-0.947,1.942,1.421,-66.895,-29.236,-320.923
-1.207,1.604,1.707,-71.899,-21.484,-416.016
-1.511,1.114,1.593,-78.552,31.616,-495.056
-1.575,0.378,1.326,-78.308,87.708,-548.401
-1.364,-0.375,1.245,-64.819,115.356,-568.970
-1.131,-1.102,1.026,-49.377,137.512,-555.908
-0.700,-1.808,0.675,-50.110,148.621,-519.836
-0.370,-2.046,0.605,-72.998,127.563,-459.656
-0.127,-1.970,0.722,-49.255,90.515,-376.709
0.012,-1.790,0.804,-22.888,61.218,-293.823
0.038,-1.567,0.817,-2.747,43.335,-213.989
-0.008,-1.360,0.871,10.010,21.606,-140.808
-0.044,-1.263,0.964,11.963,-1.770,-80.261
-0.037,-1.166,1.064,9.277,-18.921,-22.278
-0.111,-1.086,1.132,7.751,-28.442,33.813
-0.193,-1.116,1.103,14.648,-30.701,81.848
-0.420,-1.318,1.040,30.579,-33.325,129.761
-0.663,-1.515,1.000,64.697,-44.189,188.904
-0.689,-1.376,0.941,108.521,-73.486,257.690
-0.695,-1.347,1.107,123.047,-110.107,316.406
-0.634,-1.253,1.176,122.559,-127.808,366.699
-0.492,-0.868,1.216,124.573,-130.005,431.152
-0.352,-0.162,1.356,104.980,-121.094,490.234
-0.318,0.578,1.337,69.214,-94.360,515.747
-0.232,1.031,1.154,18.372,-54.321,492.615
-0.230,1.050,0.946,-27.100,-31.250,428.162
-0.368,0.810,0.654,-55.054,-26.001,354.736
-0.549,0.590,0.195,-64.270,-44.617,287.598
-0.693,0.471,0.730,-48.462,-110.046,233.948
-0.755,0.675,1.094,-34.180,-145.508,207.947
-0.754,0.803,1.361,-30.273,-132.812,177.612
-0.767,0.601,1.476,-23.560,-103.210,135.681
-0.679,0.446,1.462,-18.982,-60.486,103.760
-0.546,0.313,1.382,-14.465,-18.616,80.872
-0.351,0.380,1.266,-5.127,12.817,58.777
-0.229,0.426,1.051,4.517,34.790,30.701
-0.194,0.482,0.895,9.216,42.664,1.099
-0.193,0.567,0.812,11.475,39.185,-28.564
-0.212,0.543,0.798,15.320,29.297,-62.927
-0.228,0.509,0.978,19.287,15.076,-95.703
-0.207,0.428,1.123,24.536,9.949,-124.023
-0.224,0.088,1.152,28.259,17.090,-153.198
-0.232,-0.324,1.220,19.653,27.405,-167.786
-0.229,-0.633,1.164,1.648,41.809,-160.889
-0.223,-0.822,1.006,-15.442,56.274,-139.038
-0.215,-0.883,0.805,-26.672,64.758,-108.643
-0.198,-0.822,0.691,-29.541,57.495,-74.585
-0.161,-0.698,0.704,-22.156,36.255,-43.518
-0.098,-0.500,0.807,-6.348,12.146,-16.602
-0.132,-0.454,0.930,4.150,-5.981,0.244
-0.100,-0.336,1.034,2.625,-13.733,12.817
-0.114,-0.164,1.056,0.671,-13.977,23.071
-0.143,-0.139,1.040,2.197,-13.000,21.484
-0.142,-0.174,1.062,4.822,-15.442,18.188
-0.110,-0.190,1.095,5.676,-16.541,18.921
-0.074,-0.160,1.137,6.042,-13.977,22.400
-0.058,-0.185,1.088,5.493,-7.263,24.963
-0.055,-0.243,1.006,1.709,-1.099,27.161
-0.062,-0.239,0.979,0.488,-1.160,32.654
-0.081,-0.208,0.977,0.977,-3.723,39.124
-0.095,-0.159,1.026,0.488,-5.615,43.457
-0.123,-0.109,1.066,-0.183,-5.249,45.837
-0.140,-0.074,1.053,-0.366,-1.770,45.471
-0.160,-0.026,0.980,0.793,1.465,43.579
-0.176,-0.073,0.982,2.075,-0.732,37.842
-0.179,-0.102,0.996,1.282,-3.235,33.264
-0.177,-0.056,1.002,1.892,-3.601,31.189
-0.185,-0.042,1.041,4.456,-4.333,27.039
-0.192,-0.039,1.067,5.554,-3.845,21.606
-0.203,-0.105,1.069,5.005,-1.038,15.686
-0.199,-0.162,1.035,4.456,2.991,11.536
-0.173,-0.166,1.010,3.967,5.005,11.230
-0.158,-0.148,0.991,3.601,4.822,12.268
-0.143,-0.138,0.984,2.258,3.967,12.146
-0.135,-0.097,1.003,1.770,1.587,11.963
-0.143,-0.098,1.015,1.404,0.244,9.888
-0.145,-0.102,1.013,1.282,0.610,7.385
-0.146,-0.100,1.008,2.747,1.282,6.104
-0.151,-0.123,0.975,3.906,2.258,4.517
-0.142,-0.146,0.973,3.296,1.831,3.479
-0.142,-0.164,1.003,2.808,-0.183,3.357
-0.145,-0.183,1.020,2.258,-0.671,3.296
-0.158,-0.192,1.022,1.953,-0.366,3.784
-0.142,-0.198,1.045,1.282,-0.183,4.578
-0.123,-0.175,1.034,1.770,1.099,6.226
-0.109,-0.151,1.009,2.747,1.831,6.653
-0.110,-0.132,0.994,1.953,1.099,7.019
-0.124,-0.145,0.998,2.319,-1.160,5.859
-0.144,-0.151,1.027,3.357,-3.662,4.333
-0.160,-0.158,1.043,3.845,-4.700,3.052
-0.171,-0.178,1.038,3.723,-3.967,2.014
-0.173,-0.206,1.049,2.930,-3.357,1.648
-0.164,-0.206,1.063,1.343,-2.075,2.625
-0.163,-0.201,1.044,0.671,0.488,3.967
-0.152,-0.170,1.032,-0.061,1.953,5.371
-0.144,-0.166,1.014,-1.404,2.380,5.615
-0.140,-0.157,1.006,-2.563,1.831,5.737
-0.137,-0.142,0.986,-2.319,0.977,5.493
-0.140,-0.120,0.990,-1.465,-0.977,4.822
-0.149,-0.096,0.996,-0.244,-2.869,3.357
-0.156,-0.113,0.995,0.916,-3.296,0.793
-0.160,-0.127,1.012,2.563,-3.540,-1.160
-0.157,-0.133,1.029,3.967,-2.686,-2.441
-0.158,-0.166,1.020,4.089,-0.793,-3.784
-0.145,-0.179,1.016,2.502,1.221,-3.967
-0.128,-0.187,1.010,1.343,2.441,-2.808
-0.111,-0.177,1.000,0.183,3.296,-1.526
-0.105,-0.179,1.001,0.061,2.808,-0.122
-0.109,-0.164,1.001,0.000,2.258,1.099
-0.112,-0.155,0.996,0.122,1.465,1.953
-0.115,-0.150,1.004,0.977,0.427,2.380
-0.118,-0.136,1.007,1.526,-0.366,2.441
-0.118,-0.115,1.001,2.563,-0.427,2.258
-0.121,-0.113,0.997,2.930,-0.610,1.160
-0.129,-0.155,1.011,3.357,-1.282,-0.183
-0.129,-0.170,1.021,3.601,-1.465,-0.305
-0.131,-0.185,1.033,3.479,-1.038,0.610

-0.533,1.448,0.864,-28.076,20.264,-124.512
-0.714,1.936,0.902,-34.973,6.348,-200.195
-0.954,2.195,0.892,-22.461,-10.620,-287.964
-1.324,1.717,0.996,-3.967,-25.208,-408.325
-1.626,0.915,0.972,14.160,-18.921,-507.568
-1.518,0.200,1.131,23.193,-0.977,-554.749
-1.226,-0.485,1.407,45.837,18.860,-562.744
-1.052,-1.243,1.340,87.158,56.702,-545.898
-0.729,-1.754,1.180,101.807,99.365,-504.639
-0.392,-1.921,1.010,98.877,127.563,-434.570
-0.176,-1.954,0.837,77.271,136.536,-361.572
-0.027,-1.851,0.681,54.199,126.953,-290.466
0.039,-1.599,0.568,36.621,100.708,-214.355
0.036,-1.362,0.538,21.667,67.688,-146.484
0.017,-1.077,0.572,7.812,33.508,-90.393
-0.042,-0.709,0.772,-1.343,0.305,-42.480
-0.113,-0.410,0.990,-7.324,-20.874,-11.658
-0.179,-0.289,1.073,-10.376,-24.109,1.343
-0.220,-0.225,1.088,-13.733,-18.127,8.789
-0.239,-0.203,1.091,-11.597,-12.817,15.747
-0.242,-0.246,1.087,-4.028,-7.935,21.912
-0.219,-0.273,1.090,10.315,-4.944,30.029
-0.151,-0.194,1.085,21.484,-3.418,39.856
-0.079,-0.099,1.033,23.193,-0.977,47.180
-0.019,-0.052,1.014,20.630,0.549,47.791
0.007,-0.056,0.991,11.841,0.305,42.908
0.011,-0.067,0.979,5.371,-1.160,37.903
-0.013,-0.104,0.997,0.549,-4.211,33.081
-0.040,-0.116,1.010,-2.380,-6.470,30.396
-0.054,-0.080,1.021,-3.174,-7.629,30.945
-0.081,-0.020,1.048,-1.648,-7.385,30.640
-0.111,0.007,1.047,0.671,-5.676,26.978
-0.142,-0.004,1.040,-0.854,-3.418,22.339
-0.151,-0.000,1.038,-2.869,-1.038,18.860
-0.142,0.006,1.018,-1.770,1.282,16.418
-0.129,0.008,1.001,0.122,2.991,12.939
-0.130,-0.010,1.010,0.916,3.052,8.667
-0.125,-0.049,1.006,1.038,2.625,3.967
-0.106,-0.073,1.001,1.343,1.160,0.977
-0.094,-0.085,1.020,0.732,-0.427,-0.671
-0.091,-0.103,1.028,-0.244,-1.404,-2.136
-0.087,-0.101,1.025,-2.502,-1.099,-2.319
-0.091,-0.099,1.021,-4.395,-0.671,-2.319
-0.095,-0.095,1.007,-5.066,-0.366,-2.747
-0.097,-0.076,1.018,-3.845,-0.671,-2.869
-0.098,-0.093,1.018,-2.563,-1.038,-4.089
-0.090,-0.112,1.011,-4.089,0.061,-5.127
-0.083,-0.114,1.015,-5.554,0.854,-4.822
-0.093,-0.136,1.034,-5.432,0.000,-4.578
-0.104,-0.145,1.051,-3.967,-0.671,-3.723
-0.107,-0.107,1.053,-0.732,-0.671,-1.038
-0.106,-0.065,1.052,0.854,0.366,0.488
-0.107,-0.068,1.035,0.244,1.709,-1.282
-0.106,-0.079,1.017,-1.526,2.136,-3.540
-0.099,-0.072,1.024,-2.930,1.160,-4.639
-0.092,-0.065,1.030,-3.723,0.305,-5.432
-0.095,-0.079,1.033,-6.287,0.488,-6.897
-0.102,-0.107,1.044,-8.240,0.183,-8.667
-0.099,-0.126,1.058,-8.850,0.305,-8.606
-0.086,-0.131,1.040,-7.629,1.465,-7.141
-0.071,-0.116,1.023,-4.883,1.831,-5.798
-0.071,-0.103,1.017,-2.197,1.953,-4.456
-0.077,-0.101,1.011,-2.502,2.319,-3.967
-0.082,-0.091,1.011,-2.197,2.380,-3.174
-0.088,-0.082,1.011,-1.343,2.197,-3.052
-0.095,-0.068,1.020,-2.075,2.502,-3.113
-0.106,-0.070,1.029,-4.089,2.380,-3.967
-0.112,-0.094,1.042,-5.493,2.441,-5.615
-0.105,-0.111,1.044,-5.005,2.930,-6.042
-0.100,-0.115,1.040,-4.211,3.601,-5.371
-0.097,-0.114,1.036,-4.639,3.784,-4.639
-0.089,-0.122,1.032,-4.333,3.662,-4.089
-0.082,-0.119,1.037,-3.906,2.380,-3.113
-0.077,-0.094,1.029,-2.319,1.526,-1.892
-0.073,-0.062,1.020,-1.038,1.099,-1.282
-0.075,-0.047,1.017,-1.099,0.427,-1.953
-0.078,-0.055,1.016,-1.282,0.244,-3.601
-0.084,-0.077,1.025,0.122,-0.427,-4.944
-0.093,-0.093,1.056,1.526,-1.648,-5.310
-0.086,-0.100,1.054,2.686,-1.282,-4.883
-0.079,-0.088,1.036,3.296,0.305,-3.845
-0.077,-0.071,1.022,2.686,1.282,-3.479
-0.081,-0.074,1.027,1.465,0.916,-4.028
-0.089,-0.097,1.050,-1.282,-0.122,-5.005
-0.091,-0.112,1.049,-1.404,0.244,-4.822
-0.082,-0.107,1.042,0.671,0.977,-3.113
-0.077,-0.098,1.028,2.136,1.709,-1.831
-0.079,-0.091,1.022,2.014,1.770,-1.160
-0.081,-0.080,1.031,0.549,0.793,-0.977
-0.081,-0.076,1.035,-0.549,0.183,-1.099
-0.075,-0.066,1.029,-0.488,-0.244,-1.160
-0.077,-0.068,1.033,0.122,-0.427,-1.709
-0.077,-0.056,1.021,1.587,0.000,-1.831
-0.075,-0.046,1.031,2.625,0.183,-1.953
-0.079,-0.055,1.022,2.747,0.427,-2.991
-0.083,-0.076,1.027,1.465,0.549,-4.211
-0.081,-0.099,1.036,-0.610,0.488,-4.700
-0.080,-0.106,1.034,-0.916,0.183,-3.662
-0.076,-0.087,1.034,1.282,-0.244,-2.197
-0.074,-0.063,1.036,1.953,-0.549,-1.221
-0.076,-0.068,1.029,0.183,0.427,-1.587
-0.076,-0.081,1.032,-0.610,0.488,-2.808
-0.072,-0.075,1.031,0.122,0.000,-2.808
-0.068,-0.065,1.039,0.244,-0.305,-2.808
-0.075,-0.075,1.055,-1.038,0.000,-3.357
-0.075,-0.086,1.042,-1.831,1.648,-3.662
-0.066,-0.079,1.027,-1.648,2.869,-2.625
-0.067,-0.077,1.020,-2.014,2.869,-2.258
-0.070,-0.074,1.022,-1.404,2.136,-2.075
-0.072,-0.074,1.034,0.488,0.977,-1.709
-0.075,-0.081,1.047,0.061,1.038,-1.709
-0.069,-0.081,1.036,-0.671,2.014,-1.099
-0.062,-0.077,1.027,-0.427,2.563,-0.305
-0.061,-0.065,1.014,-0.183,2.625,0.122
-0.064,-0.055,1.023,-0.977,1.709,0.366
-0.069,-0.052,1.033,-1.160,0.793,-0.488
-0.069,-0.051,1.029,-1.587,1.160,-1.343
-0.070,-0.048,1.026,-1.892,1.709,-2.075
-0.070,-0.047,1.028,-2.258,1.709,-3.052

-0.499,-1.427,0.943,68.726,-29.297,183.960
-0.575,-1.285,0.877,129.272,-63.293,243.225
-0.575,-0.965,0.859,169.250,-105.286,298.767
-0.453,-0.439,1.307,178.833,-153.076,340.210
-0.455,-0.302,1.209,158.447,-157.104,361.633
-0.335,0.050,1.130,112.305,-134.583,380.737
-0.392,0.269,1.114,56.519,-120.422,389.038
-0.329,0.219,1.045,0.000,-93.994,366.882
-0.214,0.264,0.981,-25.330,-83.435,341.370
-0.201,0.351,0.884,-37.415,-85.083,320.679
-0.241,0.375,0.691,-43.640,-92.957,293.884
-0.282,0.344,0.847,-34.973,-121.521,265.564
-0.250,0.560,1.230,-22.278,-143.677,249.023
-0.229,0.633,1.509,-9.216,-137.817,228.638
-0.253,0.530,1.487,1.526,-103.149,190.674
-0.304,0.261,1.282,6.653,-59.021,144.897
-0.327,0.084,1.087,13.916,-29.968,117.371
-0.313,0.009,0.942,17.639,-17.883,104.675
-0.288,0.035,0.865,19.653,-18.555,92.957
-0.281,-0.059,0.952,24.902,-28.625,75.012
-0.272,-0.081,0.954,26.001,-30.884,64.819
-0.266,-0.054,0.955,26.062,-29.480,58.228
-0.259,-0.042,1.008,23.437,-28.687,49.805
-0.267,-0.092,0.983,19.409,-24.109,38.696
-0.273,-0.187,0.949,13.489,-17.944,27.283
-0.261,-0.225,1.010,9.155,-15.503,21.118
-0.250,-0.198,1.020,6.775,-10.986,18.555
-0.242,-0.272,0.983,3.235,-5.066,13.123
-0.201,-0.281,0.999,-0.610,-2.747,9.766
-0.183,-0.220,1.023,1.526,-2.563,10.010
-0.187,-0.230,0.999,3.845,-0.244,6.714
-0.184,-0.262,0.984,3.174,1.709,2.319
-0.177,-0.285,0.963,3.113,1.770,0.549
-0.173,-0.302,0.958,3.845,0.977,0.000
-0.170,-0.324,0.978,3.418,-0.793,0.488
-0.164,-0.319,0.997,2.014,-1.831,1.892
-0.147,-0.285,1.014,2.197,-1.892,3.784
-0.144,-0.335,0.983,2.014,-1.221,4.272
-0.136,-0.369,0.996,-0.732,-1.709,5.798
-0.135,-0.326,1.009,-0.916,-3.479,10.559
-0.146,-0.287,1.002,0.488,-3.540,14.465
-0.158,-0.288,0.999,0.793,-3.967,15.564
-0.175,-0.285,1.000,0.183,-3.784,15.869
-0.182,-0.277,1.006,0.610,-3.601,16.235
-0.189,-0.255,0.995,1.038,-2.136,16.357
-0.190,-0.229,1.006,1.953,-1.831,15.564
-0.188,-0.243,0.979,2.441,0.183,13.245
-0.190,-0.282,0.999,1.038,0.000,10.620
-0.188,-0.300,0.981,0.427,0.000,9.521
-0.190,-0.315,0.999,-0.549,-0.427,9.460
-0.177,-0.289,1.004,-0.732,-0.427,10.864
-0.160,-0.259,1.005,1.099,0.305,12.329
-0.157,-0.246,1.001,2.991,0.610,12.329
-0.161,-0.272,0.970,3.967,1.099,10.742
-0.164,-0.273,0.978,4.089,-0.427,10.071
-0.167,-0.244,1.000,4.639,-2.380,9.949
-0.177,-0.236,1.001,4.944,-2.136,8.362
-0.184,-0.282,0.983,3.845,-0.732,5.615
-0.170,-0.303,0.974,2.075,0.122,4.272
-0.158,-0.296,0.967,1.831,-0.183,5.432
-0.152,-0.319,0.990,-0.061,-0.732,6.592
-0.148,-0.351,1.014,-2.441,-1.404,7.751
-0.160,-0.341,1.022,-2.380,-0.916,10.437
-0.166,-0.283,1.022,0.305,0.732,13.733
-0.166,-0.255,1.002,3.113,2.441,14.526
-0.165,-0.261,0.982,3.906,3.662,12.634
-0.160,-0.285,0.982,2.686,3.479,10.681
-0.157,-0.274,0.975,2.625,2.991,10.132
-0.152,-0.253,0.974,3.601,1.892,9.888
-0.156,-0.233,0.983,3.845,0.427,8.240
-0.163,-0.245,0.997,4.028,-0.793,5.371
-0.161,-0.298,0.976,3.235,-0.183,2.808
-0.147,-0.322,0.966,1.343,-0.244,2.380
-0.149,-0.325,0.965,1.465,-1.770,4.089
-0.151,-0.348,0.960,0.549,-2.991,5.371
-0.152,-0.326,1.001,-0.977,-4.639,7.874
-0.163,-0.298,1.009,0.793,-4.761,10.132
-0.172,-0.242,1.002,3.601,-3.906,11.108
-0.172,-0.228,1.003,5.615,-2.747,9.216
-0.179,-0.275,0.978,5.005,-0.427,4.822
-0.169,-0.273,0.966,4.150,0.671,2.991
-0.166,-0.241,0.966,4.822,0.366,2.075
-0.161,-0.245,0.970,5.371,-0.244,-0.977
-0.154,-0.288,0.956,4.211,-0.061,-3.967
-0.148,-0.348,0.966,2.502,-0.244,-4.944
-0.139,-0.325,0.979,1.465,-0.977,-2.075
-0.140,-0.336,0.981,1.343,-0.916,0.793
-0.140,-0.328,0.960,0.549,-0.671,2.930
-0.139,-0.292,0.975,1.221,-1.770,5.493
-0.147,-0.276,0.975,2.502,-2.625,6.958
-0.155,-0.275,0.968,2.747,-2.441,6.226
-0.161,-0.265,0.972,3.784,-3.235,5.188
-0.167,-0.255,0.987,4.578,-3.479,3.540
-0.169,-0.270,1.003,5.005,-2.869,1.343
-0.166,-0.282,1.000,4.517,-0.977,-0.488
-0.159,-0.320,0.976,3.845,0.671,-1.709
-0.149,-0.328,0.967,2.258,0.671,-1.648
-0.143,-0.335,0.987,1.221,-0.488,-0.122
-0.143,-0.340,0.986,0.061,-0.610,1.831
-0.143,-0.312,0.987,-0.183,-1.160,4.333
-0.146,-0.280,0.980,0.732,-1.282,6.104
-0.154,-0.258,0.974,2.136,-1.953,6.104
-0.161,-0.247,0.975,4.150,-2.808,4.700
-0.172,-0.247,0.987,6.226,-3.723,2.258
-0.175,-0.280,1.008,6.226,-3.540,-0.488
-0.168,-0.328,1.005,4.517,-1.526,-2.563
-0.153,-0.325,0.994,3.723,0.916,-2.197
-0.146,-0.303,0.994,4.089,1.526,-0.427
-0.148,-0.310,0.977,3.723,1.404,-0.244
-0.149,-0.321,0.961,2.686,0.977,-0.366
-0.144,-0.306,0.982,2.686,-0.854,0.732
-0.148,-0.300,0.989,2.747,-1.587,1.404
-0.145,-0.289,0.970,2.380,-1.587,1.892
-0.147,-0.278,0.968,3.174,-2.319,1.953
-0.152,-0.273,0.970,4.089,-3.662,1.099
-0.165,-0.278,1.002,4.639,-4.578,-0.183
-0.179,-0.336,0.995,4.211,-3.784,-1.953
-0.169,-0.340,1.001,1.465,-1.892,-1.831
-0.161,-0.314,1.007,0.488,-0.732,-0.244

-0.341,-2.017,1.028,26.062,-31.677,149.048
-0.541,-2.041,1.264,108.337,-69.336,232.239
-0.664,-1.763,1.283,190.979,-93.445,320.007
-0.698,-1.253,1.459,238.708,-116.516,399.048
-0.628,-0.458,1.614,230.835,-119.080,467.041
-0.626,-0.086,1.597,154.846,-83.923,504.395
-0.555,-0.042,0.938,91.248,-23.987,503.357
-0.466,0.364,0.865,59.326,-27.283,510.376
-0.285,0.818,0.724,52.979,-47.424,498.901
-0.306,0.816,0.538,42.297,-65.735,448.242
-0.496,0.524,0.530,45.532,-100.708,380.066
-0.725,0.332,0.638,62.988,-141.602,330.200
-0.991,0.214,0.883,85.083,-177.429,308.655
-1.213,0.584,1.010,106.384,-199.036,305.908
-1.185,0.607,1.563,139.099,-216.125,271.973
-0.603,0.847,1.835,134.644,-184.265,223.206
-0.294,1.029,1.426,66.040,-92.468,164.734
-0.292,0.280,1.159,-5.798,-32.166,65.063
-0.239,-0.113,0.880,-30.090,-14.099,7.263
-0.170,-0.323,0.788,-38.391,-15.259,-2.686
-0.110,-0.302,0.968,-34.058,-32.043,2.869
-0.066,-0.138,1.103,-24.231,-36.072,13.000
-0.076,-0.097,1.180,-14.587,-27.466,12.939
-0.132,-0.147,1.199,-7.874,-14.526,6.409
-0.160,-0.105,1.122,-3.052,0.366,1.831
-0.145,0.064,1.063,4.700,8.911,-4.822
-0.121,0.189,1.063,14.221,9.521,-23.560
-0.158,0.197,1.112,21.484,7.874,-52.979
-0.190,0.141,1.138,25.574,11.780,-83.130
-0.215,0.060,1.150,26.367,19.897,-107.178
-0.235,0.050,1.202,22.522,29.846,-124.268
-0.250,0.121,1.311,17.883,40.955,-137.207
-0.230,0.265,1.370,13.550,54.138,-152.832
-0.283,0.339,1.448,7.629,67.444,-174.133
-0.385,0.453,1.414,-4.517,91.248,-201.477
-0.454,0.696,1.294,-13.611,117.493,-234.131
-0.622,0.813,1.297,-11.108,130.371,-283.264
-0.895,0.691,1.280,1.343,142.761,-337.158
-1.047,0.599,1.214,-7.812,164.246,-377.014
-1.155,0.449,1.078,-30.701,185.547,-406.799
-1.183,0.229,0.941,-49.011,197.266,-432.068
-1.071,-0.143,0.869,-71.594,197.754,-449.768
-0.925,-0.607,0.882,-104.797,191.650,-456.299
-0.726,-1.060,0.955,-140.320,184.265,-448.975
-0.590,-1.447,1.042,-178.223,179.626,-422.241
-0.376,-1.540,1.134,-196.960,176.208,-368.713
-0.189,-1.561,1.094,-203.186,176.697,-304.932
-0.029,-1.486,0.780,-196.838,162.354,-237.549
0.091,-1.203,0.863,-152.344,112.793,-171.204
0.149,-0.935,0.987,-116.150,72.815,-117.798
0.190,-0.689,0.924,-63.843,56.091,-76.599
0.192,-0.485,0.838,-37.048,44.189,-48.767
0.174,-0.300,0.784,-30.823,31.982,-33.081
0.151,-0.172,0.813,-29.480,16.663,-26.917
0.112,-0.164,0.840,-25.085,2.075,-27.344
0.104,-0.180,0.867,-14.282,-8.728,-26.245
0.086,-0.201,0.955,-2.014,-18.677,-21.484
0.079,-0.209,0.998,9.583,-22.522,-15.503
0.092,-0.176,1.045,25.085,-23.743,-7.385
0.108,-0.222,1.083,38.330,-22.827,-0.732
0.146,-0.214,1.048,43.274,-17.029,9.338
0.192,-0.213,0.997,45.410,-11.963,19.226
0.211,-0.201,0.980,46.143,-11.963,26.367
0.210,-0.100,0.993,41.626,-13.550,33.142
0.150,-0.010,0.971,31.494,-12.878,36.133
0.095,0.045,0.949,20.142,-12.268,33.386
0.053,0.146,1.006,10.986,-16.235,29.724
0.027,0.212,1.068,2.747,-18.372,23.621
0.031,0.184,1.074,-4.944,-14.404,14.587
0.044,0.115,1.044,-4.150,-8.850,6.836
0.066,0.045,1.030,3.296,-5.676,2.319
0.084,0.001,1.027,8.911,-4.089,1.160
0.098,-0.006,1.004,7.568,-1.587,2.014
0.092,-0.029,0.987,4.700,-0.366,1.343
0.079,-0.041,1.021,3.967,-2.380,0.977
0.068,-0.013,1.043,4.333,-3.845,2.563
0.057,0.031,1.052,4.456,-4.089,3.540
0.057,0.047,1.052,4.456,-4.089,1.587
0.057,0.037,1.046,1.953,-3.967,-1.587
0.052,0.004,1.044,-2.319,-3.784,-4.761
0.053,-0.006,1.042,-3.784,-3.662,-5.920
0.055,-0.006,1.061,-2.197,-4.028,-5.981
0.055,-0.011,1.077,-0.671,-3.967,-6.165
0.056,-0.031,1.078,0.183,-2.808,-6.470
0.056,-0.042,1.065,1.526,-1.526,-6.348
0.058,-0.031,1.054,1.099,-1.099,-6.042
0.054,-0.031,1.048,0.000,-1.282,-6.042
0.045,-0.031,1.060,-0.793,-2.014,-6.226
0.044,-0.026,1.081,-0.427,-2.319,-6.226
0.045,0.001,1.065,0.671,-1.282,-5.981
0.053,0.018,1.056,1.587,-0.244,-6.348
0.049,-0.022,1.042,1.099,0.183,-8.301
0.060,-0.049,1.041,2.014,0.305,-8.911
0.077,-0.044,1.051,4.700,-1.160,-7.019
0.084,-0.066,1.050,3.540,-0.305,-6.348
0.082,-0.080,1.023,1.099,1.526,-5.676
0.080,-0.080,1.001,2.747,1.587,-3.906
0.077,-0.057,1.010,4.944,-0.427,-1.770
0.070,-0.016,1.014,3.723,-1.404,-0.305
0.070,0.010,1.025,1.770,-1.709,-0.549
0.069,0.018,1.027,1.038,-1.831,-2.136
0.064,0.006,1.007,0.488,-0.793,-4.150
0.063,-0.008,1.013,-0.061,-1.160,-5.676
0.066,-0.003,1.019,1.099,-1.770,-6.226
0.076,-0.009,1.009,1.831,-1.465,-6.775
0.085,-0.021,1.022,2.197,-1.709,-7.568
0.086,-0.056,1.031,1.526,-1.526,-8.118
0.089,-0.053,1.036,0.610,-0.305,-7.019
0.085,-0.072,1.017,0.793,0.244,-6.287
0.078,-0.089,1.019,0.610,-0.244,-5.737
0.076,-0.048,1.017,0.671,-1.160,-3.113
0.076,-0.028,1.031,1.282,-2.258,-1.892
0.070,-0.030,1.043,1.221,-2.869,-2.441
0.072,-0.035,1.043,1.709,-2.808,-2.563
0.077,-0.040,1.055,2.686,-2.747,-2.319
0.078,-0.026,1.045,3.601,-1.953,-1.831
0.073,-0.015,1.032,2.808,-0.916,-1.953
0.066,-0.012,1.028,1.831,-1.160,-2.686
0.065,-0.014,1.037,1.770,-2.197,-3.662

-0.646,-1.961,0.983,19.531,-5.920,174.866
-0.845,-1.889,1.183,99.365,-45.898,271.545
-0.780,-1.315,1.392,161.438,-73.792,374.817
-0.439,-0.405,1.200,189.941,-83.374,455.872
-0.128,0.453,1.479,191.711,-94.116,494.934
-0.259,0.248,1.210,154.846,-69.153,475.037
-0.111,0.491,1.073,107.910,-31.921,447.693
-0.043,0.787,1.172,82.764,-35.156,433.167
-0.116,0.579,0.974,54.321,-22.034,386.047
-0.177,0.217,0.588,18.311,-7.996,328.796
-0.132,0.311,0.407,0.305,-36.011,300.171
-0.145,0.382,0.892,9.094,-101.013,278.992
-0.139,0.418,1.232,18.127,-123.962,250.244
-0.148,0.430,1.285,23.437,-103.027,226.685
-0.113,0.457,1.306,24.353,-76.111,203.247
-0.081,0.436,1.271,22.400,-51.086,177.917
-0.051,0.338,1.101,17.761,-26.123,148.254
-0.059,0.286,0.939,11.475,-12.634,122.070
-0.070,0.221,0.830,10.193,-15.381,98.816
-0.108,0.187,0.860,7.629,-30.029,75.623
-0.158,0.172,0.965,5.554,-47.302,53.894
-0.170,0.191,1.124,8.728,-57.556,35.889
-0.175,0.116,1.229,13.977,-54.443,21.606
-0.154,-0.058,1.233,13.855,-38.513,7.690
-0.136,-0.149,1.195,11.292,-21.545,2.258
-0.124,-0.170,1.162,8.484,-9.094,2.808
-0.099,-0.130,1.138,5.005,-1.953,3.174
-0.084,-0.079,1.099,4.333,3.357,1.892
-0.083,-0.042,1.070,5.066,6.470,-2.686
-0.093,0.053,1.073,5.859,6.409,-8.911
-0.111,0.181,1.105,6.958,6.104,-19.348
-0.104,0.389,1.137,8.911,7.019,-34.485
-0.118,0.574,1.158,12.390,9.888,-57.983
-0.140,0.817,1.184,14.893,15.381,-91.492
-0.217,0.999,1.189,15.259,21.301,-135.376
-0.276,1.123,1.214,19.348,25.146,-190.369
-0.400,1.183,1.140,31.372,30.212,-247.864
-0.624,1.053,1.005,46.082,39.307,-311.035
-0.786,0.933,0.924,57.800,49.011,-369.446
-0.897,0.806,0.911,73.242,55.542,-419.495
-0.947,0.477,1.044,101.990,64.148,-467.224
-1.049,0.095,1.092,97.290,91.919,-504.211
-1.135,-0.245,0.972,79.590,128.784,-516.663
-1.117,-0.491,0.865,52.307,152.527,-502.747
-1.005,-0.729,0.805,15.808,161.316,-475.891
-0.842,-0.991,0.851,-27.405,158.997,-446.289
-0.681,-1.370,1.004,-70.923,151.123,-423.889
-0.519,-1.832,1.230,-109.192,143.860,-398.682
-0.369,-2.119,1.453,-130.615,136.536,-343.750
-0.073,-2.132,1.415,-126.526,136.414,-256.897
0.042,-1.927,1.219,-121.094,139.832,-163.086
0.097,-1.502,0.916,-103.210,132.568,-76.904
0.146,-0.960,0.769,-95.337,115.723,-11.902
0.156,-0.600,0.642,-59.937,87.830,22.888
0.118,-0.263,0.543,-33.447,50.110,36.438
0.088,-0.129,0.642,-13.123,8.057,31.555
0.062,-0.107,0.845,5.127,-25.696,23.621
0.069,-0.054,0.965,10.498,-35.278,24.170
0.078,-0.064,0.984,12.207,-31.799,22.217
0.083,-0.132,1.018,19.470,-29.419,19.226
0.088,-0.212,1.040,25.146,-27.222,19.714
0.106,-0.224,1.033,26.855,-22.583,25.085
0.125,-0.203,1.023,24.780,-18.616,31.921
0.122,-0.189,1.034,20.569,-16.663,36.804
0.114,-0.196,1.052,15.564,-16.479,38.879
0.110,-0.124,1.014,12.207,-15.686,42.236
0.098,-0.093,0.962,10.620,-15.808,43.884
0.092,-0.010,0.944,8.362,-17.822,44.861
0.074,0.055,0.954,1.282,-19.287,43.762
0.070,0.095,0.986,-8.362,-18.127,40.344
0.055,0.102,1.022,-15.198,-15.259,34.973
0.039,0.082,1.054,-17.029,-11.108,27.405
0.024,0.000,1.070,-13.367,-6.836,19.409
0.026,0.033,1.065,-7.751,-3.601,15.625
0.026,-0.032,1.054,1.343,-1.892,9.766
0.031,-0.091,1.070,8.362,-0.977,6.226
0.025,-0.093,1.041,5.981,2.258,7.874
0.023,-0.095,1.035,2.258,3.418,8.301
0.027,-0.086,1.040,2.258,0.793,8.362
0.038,-0.064,1.023,2.686,-0.793,8.301
0.037,-0.035,1.027,1.892,-2.014,7.690
0.024,-0.037,1.043,2.380,-3.540,5.615
0.022,-0.041,1.034,1.343,-3.357,3.601
0.024,-0.023,1.025,-0.305,-2.380,2.686
0.026,-0.042,1.021,-2.441,-2.319,0.854
0.023,-0.052,1.018,-2.625,-2.136,-0.427
0.019,-0.056,1.043,-2.686,-2.502,-1.221
0.019,-0.060,1.046,-2.258,-2.014,-2.441
0.018,-0.084,1.030,-1.221,-0.793,-4.089
0.027,-0.087,1.030,1.221,-0.977,-4.578
0.029,-0.098,1.043,3.113,-1.892,-4.395
0.038,-0.092,1.039,3.967,-1.648,-3.906
0.042,-0.100,1.046,4.272,-1.465,-3.357
0.038,-0.122,1.031,3.906,-0.793,-3.235
0.042,-0.124,1.008,4.028,-0.427,-2.197
0.045,-0.104,1.005,5.066,-1.831,-0.366
0.046,-0.078,1.008,4.761,-3.357,0.244
0.043,-0.065,1.005,4.150,-3.662,0.000
0.041,-0.050,1.010,3.662,-3.784,-0.793
0.032,-0.045,1.016,2.197,-3.479,-2.625
0.038,-0.050,1.009,1.770,-2.808,-4.761
0.043,-0.051,1.012,2.441,-2.686,-6.042
0.042,-0.056,1.023,1.831,-2.014,-6.836
0.039,-0.098,1.013,1.648,-0.854,-8.118
0.046,-0.124,1.010,2.258,-0.671,-7.690
0.053,-0.153,1.029,2.869,-1.953,-6.775
0.060,-0.163,1.042,4.700,-2.747,-5.371
0.069,-0.156,1.036,7.812,-3.113,-2.441
0.068,-0.153,1.027,10.498,-3.235,0.061
0.065,-0.123,1.038,12.329,-3.784,1.831
0.063,-0.082,1.040,12.634,-3.845,2.991
0.050,-0.082,1.014,10.986,-2.930,1.160
0.040,-0.091,1.005,10.132,-3.052,-1.099
0.049,-0.114,1.000,12.268,-4.517,-2.441
0.051,-0.127,1.000,15.320,-6.348,-2.686
0.047,-0.137,1.020,17.944,-8.240,-1.831
0.045,-0.166,1.022,19.897,-9.094,-1.343
0.041,-0.188,1.001,24.536,-9.644,0.854
0.041,-0.164,1.014,31.921,-12.329,5.066

-0.600,-1.534,0.809,0.366,-192.810,146.423
-0.497,-1.067,1.244,22.827,-243.164,205.383
-0.387,-0.687,1.543,57.068,-251.892,258.667
-0.390,-0.462,1.493,39.001,-216.675,301.697
-0.371,-0.292,1.391,-6.226,-167.175,328.491
-0.361,-0.110,1.413,-48.828,-129.211,351.013
-0.357,-0.001,1.337,-93.689,-80.200,363.708
-0.280,0.094,1.155,-125.916,-26.306,364.746
-0.234,0.260,1.033,-131.470,2.380,358.154
-0.193,0.419,0.994,-112.427,12.817,333.801
-0.276,0.217,0.861,-79.468,13.245,292.725
-0.320,-0.105,0.794,-69.824,8.484,254.578
-0.292,-0.105,0.829,-57.251,-5.432,243.103
-0.293,-0.163,0.817,-41.870,-15.564,235.229
-0.317,-0.115,0.905,-33.691,-25.635,224.182
-0.294,0.146,1.008,-30.090,-37.048,216.492
-0.246,0.355,0.972,-24.170,-41.382,195.801
-0.266,0.292,0.969,-21.667,-47.974,160.950
-0.307,0.146,0.987,-28.992,-50.415,131.348
-0.280,0.114,1.034,-31.128,-47.485,115.784
-0.290,0.051,1.056,-26.123,-42.786,103.394
-0.287,-0.058,1.022,-25.146,-33.569,91.187
-0.210,-0.075,1.053,-28.564,-26.306,86.060
-0.120,0.062,1.146,-26.367,-23.926,84.839
-0.087,0.107,1.157,-15.930,-19.775,74.951
-0.087,-0.026,1.078,-12.695,-9.888,57.922
-0.058,-0.055,1.026,-13.916,-1.648,49.011
-0.038,0.008,0.998,-7.935,-0.183,46.387
-0.051,0.084,0.964,-2.197,-0.061,40.161
-0.099,0.079,0.968,-1.038,-1.709,29.297
-0.164,-0.002,0.997,-3.418,-3.845,16.113
-0.205,-0.119,1.001,-4.822,-5.005,5.310
-0.179,-0.206,1.060,-7.935,-7.141,-0.122
-0.172,-0.252,1.102,-12.146,-8.606,-0.793
-0.153,-0.252,1.113,-12.695,-7.263,-0.122
-0.138,-0.226,1.125,-12.695,-5.554,2.380
-0.114,-0.208,1.088,-14.709,-1.343,4.333
-0.102,-0.169,1.035,-13.855,2.808,6.653
-0.109,-0.172,1.008,-11.902,3.540,7.446
-0.110,-0.130,0.971,-11.902,3.479,8.301
-0.122,-0.117,0.991,-10.254,-0.427,8.911
-0.131,-0.110,1.001,-8.728,-3.479,7.568
-0.140,-0.047,0.996,-7.263,-3.296,7.629
-0.141,-0.005,0.990,-3.540,-3.662,4.639
-0.161,0.022,1.005,0.488,-5.249,-1.465
-0.166,0.035,1.022,5.127,-6.836,-8.789
-0.162,0.106,1.027,9.583,-6.958,-17.944
-0.173,0.221,1.059,15.198,-7.629,-29.907
-0.182,0.456,1.099,19.165,-6.592,-46.326
-0.203,0.818,1.072,24.780,-2.747,-71.167
-0.302,1.192,1.038,31.738,-0.427,-116.638
-0.461,1.588,0.975,40.527,-2.258,-180.542
-0.696,1.704,0.915,54.932,-7.629,-263.794
-0.966,1.487,0.887,76.721,-13.428,-360.718
-1.179,1.130,0.887,101.624,-11.475,-444.580
-1.307,0.740,0.891,118.469,4.761,-504.944
-1.360,0.247,0.909,123.596,32.898,-548.340
-1.322,-0.302,0.896,121.277,65.674,-572.571
-1.096,-0.799,0.756,128.296,95.764,-571.716
-0.930,-1.268,0.696,140.991,109.985,-550.659
-0.780,-1.598,0.807,117.065,109.375,-505.859
-0.591,-1.629,1.002,96.741,103.088,-439.331
-0.426,-1.696,1.118,76.172,100.708,-376.648
-0.376,-1.799,1.215,39.246,106.140,-314.453
-0.204,-1.690,1.078,2.625,120.911,-237.244
-0.182,-1.461,0.908,-38.513,130.737,-161.011
-0.141,-1.208,0.818,-57.434,120.850,-96.069
-0.122,-0.915,0.754,-62.988,102.112,-42.053
-0.104,-0.632,0.713,-54.504,77.454,-2.625
-0.131,-0.457,0.723,-39.795,48.523,18.494
-0.156,-0.389,0.833,-23.621,19.775,26.306
-0.155,-0.300,0.948,-5.249,-2.930,33.203
-0.144,-0.219,1.014,7.996,-12.634,40.222
-0.137,-0.181,1.045,13.123,-14.587,44.495
-0.116,-0.135,1.067,12.756,-13.794,48.157
-0.085,-0.117,1.068,7.996,-9.766,49.561
-0.046,-0.130,1.059,3.174,-6.042,49.133
-0.049,-0.151,1.044,1.282,-6.165,48.584
-0.054,-0.157,1.022,-0.793,-6.042,48.828
-0.048,-0.127,1.033,-0.793,-8.118,49.622
-0.046,-0.084,1.061,-1.282,-10.437,50.232
-0.044,-0.073,1.056,-2.747,-9.583,48.523
-0.052,-0.097,1.054,-5.737,-6.958,45.227
-0.066,-0.094,1.033,-9.338,-3.540,43.579
-0.073,-0.045,1.010,-11.902,-0.793,44.067
-0.055,-0.044,1.037,-17.761,-0.366,44.312
-0.089,0.013,1.034,-41.992,0.854,47.974
-0.112,0.139,1.051,-49.194,6.531,49.866
-0.115,0.100,1.086,-42.786,9.033,37.781
-0.092,-0.003,1.103,-37.537,11.658,24.109
-0.068,-0.046,1.090,-40.039,16.724,20.447
-0.083,-0.124,1.099,-48.218,21.362,20.081
-0.084,-0.197,1.078,-49.316,26.245,20.508
-0.055,-0.178,1.023,-41.321,30.396,25.024
-0.047,-0.077,0.994,-32.532,28.687,29.175
-0.051,-0.042,0.999,-20.020,21.729,26.306
-0.049,-0.071,1.016,-3.967,15.076,18.433
-0.037,-0.120,1.029,7.263,12.085,13.977
-0.033,-0.144,1.039,16.113,11.536,14.587
-0.037,-0.116,1.107,22.583,10.742,18.677
-0.056,-0.103,1.113,45.532,9.216,23.071
-0.053,-0.078,1.040,68.420,11.902,24.658
-0.051,-0.053,0.963,80.566,14.282,24.048
-0.057,-0.099,0.956,93.689,11.597,19.592
-0.049,-0.234,0.921,116.333,5.066,15.320
-0.023,-0.177,0.964,133.179,0.122,20.874
-0.001,-0.089,1.035,86.548,-0.916,24.719
-0.003,-0.103,1.058,47.241,4.150,14.832
-0.025,-0.235,1.003,49.744,9.949,2.380
-0.054,-0.271,1.045,56.458,9.155,0.916
-0.012,-0.267,1.000,83.008,6.714,7.385
-0.074,-0.115,0.854,95.825,7.935,15.381
-0.031,-0.006,0.833,19.714,4.333,17.883
-0.024,-0.054,0.904,-27.283,-4.517,6.897
-0.016,-0.250,0.992,-40.955,-11.169,-7.629
-0.016,-0.306,1.043,-45.166,-11.658,-8.606
-0.032,-0.232,1.025,-26.733,-8.606,-2.625
-0.032,-0.158,1.000,-18.250,-6.531,0.732
-0.021,-0.173,1.021,-22.644,-6.653,-1.770

-0.328,-1.337,0.924,6.470,-61.401,155.273
-0.289,-0.780,1.077,47.180,-95.947,216.064
-0.255,-0.400,1.174,62.317,-116.943,252.563
-0.263,-0.561,1.295,32.837,-121.094,262.146
-0.259,-0.610,1.406,17.212,-110.413,278.503
-0.329,-0.418,1.432,-1.648,-81.055,317.871
-0.243,-0.127,1.409,-35.278,-34.363,356.201
-0.200,0.077,1.185,-44.556,11.169,379.822
-0.273,-0.173,0.789,-48.462,50.842,377.258
-0.241,-0.373,0.640,-42.786,51.392,369.934
-0.168,-0.283,0.667,-30.273,24.963,378.296
-0.052,0.220,0.752,-24.414,1.709,394.409
-0.028,0.533,0.851,-15.564,-21.057,385.376
-0.105,0.624,0.839,-11.169,-36.499,342.896
-0.258,0.684,0.729,-16.724,-46.997,290.894
-0.433,0.788,0.720,-23.437,-63.293,239.197
-0.627,0.807,0.866,-26.062,-80.017,188.721
-0.731,0.683,1.093,-21.240,-84.900,139.587
-0.716,0.446,1.221,-14.038,-74.158,100.403
-0.555,0.309,1.457,-11.658,-55.725,71.655
-0.368,0.265,1.461,-13.550,-24.719,51.392
-0.187,0.268,1.336,-15.930,6.287,29.846
-0.089,0.162,1.148,-17.883,28.503,7.690
-0.053,0.053,0.971,-14.771,38.757,-7.446
-0.043,0.043,0.897,-10.498,37.720,-12.939
-0.016,0.083,0.843,-5.127,32.410,-15.747
-0.018,0.010,0.741,0.000,23.743,-20.996
-0.011,-0.116,0.760,1.892,8.240,-24.841
-0.024,-0.081,0.947,2.869,-9.460,-19.653
-0.044,-0.072,1.067,3.662,-17.761,-15.259
-0.062,-0.069,1.096,4.211,-16.907,-14.465
-0.071,-0.065,1.108,4.944,-15.198,-14.832
-0.076,-0.112,1.075,4.272,-13.611,-16.541
-0.071,-0.129,1.104,1.282,-15.015,-17.700
-0.080,-0.126,1.154,-0.549,-15.747,-16.602
-0.078,-0.122,1.162,-1.343,-11.597,-14.832
-0.067,-0.086,1.156,-1.038,-5.981,-12.085
-0.046,-0.096,1.092,0.000,-0.244,-11.230
-0.002,-0.121,1.031,-0.183,3.601,-10.132
0.026,-0.135,1.000,0.244,4.150,-7.629
0.023,-0.146,1.011,1.221,2.136,-3.967
0.000,-0.156,1.008,1.160,0.244,0.793
-0.026,-0.112,1.044,0.549,-1.770,5.188
-0.050,-0.058,1.047,1.770,-2.625,8.118
-0.066,-0.044,1.017,3.540,-1.282,8.850
-0.080,-0.039,1.017,3.357,-2.136,7.385
-0.093,-0.057,1.011,2.136,-3.235,5.066
-0.103,-0.100,1.035,0.610,-4.028,3.235
-0.108,-0.098,1.058,0.244,-3.784,3.723
-0.100,-0.089,1.060,1.343,-1.953,5.005
-0.088,-0.081,1.039,1.038,0.610,5.798
-0.096,-0.046,1.020,0.183,1.526,6.104
-0.098,-0.048,1.005,0.244,0.549,4.761
-0.094,-0.040,1.000,-0.061,-0.854,3.784
-0.088,-0.053,1.000,0.305,-1.526,2.930
-0.085,-0.065,1.008,-0.427,-2.686,1.282
-0.080,-0.083,1.019,-0.854,-3.418,0.366
-0.082,-0.097,1.046,-0.732,-3.540,-0.122
-0.086,-0.091,1.055,-0.610,-2.502,0.549
-0.071,-0.068,1.033,-0.183,-0.549,0.732
-0.070,-0.078,1.023,0.610,0.000,0.305
-0.077,-0.084,1.030,0.549,0.122,-0.122
-0.075,-0.078,1.032,0.183,0.549,0.244
-0.072,-0.080,1.039,0.549,0.916,0.244
-0.072,-0.092,1.020,1.404,2.014,0.366
-0.068,-0.086,1.024,1.465,2.136,0.916
-0.059,-0.087,1.022,1.465,1.770,1.221
-0.060,-0.111,1.049,1.160,0.610,1.282
-0.059,-0.110,1.047,0.793,1.038,2.380
-0.060,-0.081,1.024,1.526,2.258,4.333
-0.060,-0.086,1.007,2.319,2.136,5.188
-0.063,-0.108,1.030,1.770,0.549,5.554
-0.070,-0.068,1.028,1.404,-0.305,6.531
-0.079,-0.064,1.024,2.319,-0.977,6.165
-0.077,-0.073,1.033,2.563,-1.953,4.944
-0.086,-0.108,1.039,2.808,-2.319,4.272
-0.082,-0.098,1.026,3.052,-2.075,4.639
-0.079,-0.074,1.018,3.296,-2.014,5.371
-0.074,-0.070,1.015,3.784,-2.380,5.249
-0.069,-0.076,1.012,3.540,-2.502,5.066
-0.073,-0.089,1.030,3.296,-3.052,4.822
-0.076,-0.101,1.054,2.747,-2.747,4.822
-0.082,-0.112,1.057,2.380,-1.038,6.042
-0.077,-0.102,1.068,1.953,0.854,7.507
-0.066,-0.033,1.040,2.563,2.808,8.789
-0.065,-0.039,1.001,4.028,3.113,6.836
-0.066,-0.081,1.000,4.150,1.404,4.333
-0.063,-0.062,1.006,4.456,-0.488,4.150
-0.073,-0.066,1.015,5.859,-1.465,3.784
-0.080,-0.092,1.047,5.005,-2.014,2.930
-0.083,-0.123,1.046,3.723,-0.671,2.686
-0.069,-0.116,1.052,3.479,0.488,3.967
-0.058,-0.103,1.015,3.357,2.441,5.493
-0.049,-0.073,0.991,4.089,2.563,6.531
-0.039,-0.049,0.975,5.981,0.122,6.653
-0.047,-0.083,1.002,6.897,-3.052,5.493
-0.057,-0.081,1.035,5.981,-4.517,5.127
-0.062,-0.061,1.053,7.141,-4.150,5.859
-0.069,-0.065,1.033,7.751,-2.502,5.249
-0.066,-0.059,1.015,6.958,-1.587,4.211
-0.069,-0.087,1.026,5.859,-2.686,2.502
-0.073,-0.114,1.032,4.944,-2.869,1.831
-0.067,-0.112,1.042,4.089,-2.319,2.808
-0.068,-0.092,1.034,4.089,-1.160,4.517
-0.060,-0.078,1.013,4.333,-0.488,4.822
-0.061,-0.070,1.006,4.761,-1.221,4.456
-0.063,-0.053,1.014,5.981,-2.808,4.028
-0.071,-0.065,1.037,6.531,-3.906,2.869
-0.084,-0.082,1.053,6.165,-4.089,1.160
-0.092,-0.086,1.059,5.310,-2.930,0.366
-0.084,-0.080,1.050,4.517,-1.404,-0.061
-0.074,-0.083,1.017,3.906,0.000,-0.854
-0.061,-0.109,1.013,3.540,-0.916,-1.587
-0.056,-0.126,1.019,3.662,-2.502,-1.038
-0.058,-0.125,1.034,3.540,-3.601,0.244
-0.066,-0.136,1.050,2.747,-3.845,1.587
-0.071,-0.109,1.053,2.625,-3.235,3.174
-0.073,-0.089,1.043,2.625,-2.686,3.723
-0.068,-0.089,1.039,2.869,-2.197,3.479

-0.598,1.270,0.854,50.171,-33.325,-247.986
-0.760,1.071,0.787,56.519,-29.236,-313.904
-0.857,0.850,0.710,61.523,-28.687,-370.056
-0.925,0.570,0.704,57.129,-31.128,-415.771
-0.866,0.251,0.796,42.664,-34.851,-445.496
-0.836,-0.093,0.907,43.335,-39.978,-464.233
-0.799,-0.355,1.036,28.503,-32.532,-476.135
-0.809,-0.616,1.227,-0.793,-21.179,-479.004
-0.738,-0.945,1.535,-12.207,-13.062,-467.041
-0.628,-1.097,1.689,-25.696,10.315,-432.373
-0.572,-1.167,1.631,-44.067,43.335,-388.245
-0.495,-1.318,1.521,-71.716,71.838,-345.276
-0.389,-1.444,1.387,-56.152,90.332,-287.781
-0.256,-1.301,1.232,-46.875,101.501,-209.778
-0.117,-0.970,0.982,-40.283,107.544,-130.554
-0.060,-0.670,0.756,-35.522,99.792,-72.632
-0.039,-0.440,0.733,-30.273,73.669,-37.720
-0.024,-0.268,0.841,-26.367,42.297,-17.517
-0.027,-0.157,0.912,-20.325,20.142,-5.981
-0.053,-0.064,0.971,-12.512,6.592,1.038
-0.044,0.007,1.006,-6.714,0.488,5.981
-0.049,-0.008,0.990,-6.042,0.549,6.653
-0.039,-0.013,0.980,-1.038,0.183,8.179
-0.000,0.079,1.010,3.601,-2.625,12.085
-0.038,0.044,1.054,0.793,-3.296,11.536
-0.076,-0.033,1.047,1.038,-0.977,8.850
-0.054,-0.012,1.048,5.493,0.427,11.414
-0.045,0.036,1.025,7.263,0.183,15.015
-0.038,0.026,0.993,6.958,0.000,15.503
-0.034,0.016,0.965,6.287,-1.465,15.808
-0.031,0.074,0.975,4.578,-3.296,17.639
-0.037,0.143,0.986,3.906,-4.150,18.372
-0.054,0.162,0.979,2.930,-3.540,15.747
-0.082,0.147,0.954,1.892,-2.991,12.024
-0.090,0.136,0.965,2.014,-3.357,8.911
-0.104,0.157,1.016,3.845,-4.333,7.568
-0.120,0.121,1.027,5.737,-3.662,4.578
-0.124,0.072,1.032,8.484,-2.136,1.282
-0.109,0.083,1.068,10.742,-1.831,0.732
-0.098,0.072,1.071,8.240,-0.122,-0.061
-0.092,0.003,1.044,2.625,2.441,-2.197
-0.078,0.017,1.031,1.587,2.747,-0.427
-0.064,0.068,1.034,3.479,2.014,2.258
-0.072,0.062,1.014,4.211,1.770,2.075
-0.083,0.038,1.000,4.150,1.221,1.465
-0.088,0.039,1.016,4.639,-0.427,1.587
-0.087,0.074,1.021,4.639,-1.465,1.953
-0.083,0.090,1.020,3.662,-2.014,1.282
-0.087,0.060,1.032,4.150,-3.601,-0.610
-0.083,0.051,1.029,4.761,-3.113,-2.014
-0.091,0.038,1.038,6.287,-2.197,-2.197
-0.080,0.033,1.042,9.155,-1.770,-1.709
-0.061,0.064,1.036,10.376,-1.221,-0.183
-0.067,0.067,1.026,10.010,-0.366,-0.183
-0.075,0.037,1.029,8.972,-0.183,-2.014
-0.075,0.046,1.032,7.996,0.183,-1.831
-0.055,0.058,1.026,7.935,0.244,-1.648
-0.058,0.032,1.000,7.996,0.610,-2.441
-0.060,0.033,0.997,7.996,-0.061,-2.808
-0.055,0.072,1.006,6.897,-2.136,-2.197
-0.065,0.057,1.001,5.432,-3.052,-3.601
-0.073,0.026,1.009,5.493,-3.906,-4.944
-0.068,0.063,1.030,6.653,-4.211,-3.784
-0.064,0.083,1.045,5.676,-3.662,-3.784
-0.081,0.031,1.040,2.869,-2.380,-5.920
-0.081,0.010,1.034,2.014,-1.404,-6.531
-0.071,0.036,1.041,3.479,-1.160,-5.310
-0.073,0.030,1.046,5.371,-0.854,-5.249
-0.076,0.017,1.043,5.981,-0.122,-5.249
-0.063,0.023,1.052,6.409,0.305,-4.578
-0.046,0.038,1.037,6.531,0.549,-3.967
-0.051,0.014,1.012,5.737,1.160,-4.639
-0.055,0.002,1.041,6.042,-0.854,-5.127
-0.059,0.012,1.052,5.127,-1.831,-4.089
-0.062,0.030,1.047,5.127,-0.854,-2.991
-0.066,0.033,1.041,6.104,0.000,-2.808
-0.067,0.042,1.031,6.775,0.671,-2.930
-0.067,0.061,1.036,7.019,0.366,-3.357
-0.068,0.051,1.045,7.202,0.061,-4.883
-0.060,0.047,1.049,7.568,0.671,-6.042
-0.060,0.027,1.049,8.423,1.343,-6.836
-0.062,-0.006,1.031,5.798,2.869,-7.568
-0.057,-0.003,1.016,4.517,3.052,-6.226
-0.048,0.009,1.015,5.920,1.892,-4.883
-0.040,0.017,1.029,4.517,0.916,-4.150
-0.049,0.007,1.024,1.343,1.160,-4.517
-0.059,-0.004,1.023,-0.061,1.099,-4.517
-0.062,0.012,1.037,0.671,0.061,-3.601
-0.053,0.063,1.027,2.686,0.000,-2.136
-0.056,0.063,1.027,1.953,0.305,-3.418
-0.062,0.023,1.018,0.916,0.671,-5.920
-0.064,0.018,1.025,1.526,0.305,-6.104
-0.061,0.013,1.033,1.709,-0.244,-5.981
-0.057,0.003,1.048,1.953,-0.549,-5.981
-0.054,-0.015,1.060,2.625,0.244,-5.371
-0.047,-0.011,1.047,2.747,1.892,-4.211
-0.046,0.001,1.048,2.869,2.258,-2.686
-0.044,0.013,1.037,2.258,2.502,-2.197
-0.046,0.019,1.022,0.366,2.502,-2.075
-0.055,0.016,1.008,-0.549,2.136,-2.319
-0.059,0.024,1.035,0.488,0.488,-2.075
-0.057,0.034,1.042,3.113,-0.305,-1.831
-0.054,0.037,1.039,5.188,0.244,-1.953
-0.056,0.031,1.038,5.310,0.977,-2.625
-0.062,0.019,1.044,4.578,1.099,-3.235
-0.061,0.021,1.062,4.456,0.488,-3.479
-0.056,0.040,1.054,4.700,1.404,-3.113
-0.057,0.037,1.048,5.066,2.808,-3.967
-0.055,0.021,1.036,3.784,3.784,-5.066
-0.045,0.048,1.029,3.723,3.906,-5.127
-0.057,0.023,1.014,4.883,3.479,-5.920
-0.050,0.031,1.009,2.747,3.113,-6.104
-0.052,0.046,1.017,4.272,1.953,-6.165
-0.062,0.054,1.033,3.662,0.977,-6.775
-0.057,0.053,1.030,2.869,1.526,-7.629
-0.052,0.052,1.020,2.930,2.380,-8.362
-0.044,0.027,1.014,4.028,2.441,-9.521
-0.038,0.027,1.016,3.296,1.953,-9.094
-0.045,0.016,1.008,1.526,1.953,-8.179

-0.551,-1.906,1.043,112.427,-41.748,222.534
-0.632,-1.783,1.252,185.852,-81.848,308.899
-0.691,-1.388,1.515,218.079,-103.821,397.705
-0.678,-0.736,1.727,204.773,-98.938,480.408
-0.695,-0.236,1.654,148.499,-60.852,535.645
-0.536,0.275,1.342,72.205,-13.794,558.167
-0.427,0.547,0.945,1.587,18.738,552.185
-0.329,0.606,0.663,-35.706,26.123,511.353
-0.276,0.535,0.288,-37.048,7.935,452.576
-0.360,0.710,0.100,-34.729,-39.490,398.926
-0.489,0.803,0.235,-33.447,-109.497,341.003
-0.650,0.844,0.674,-24.658,-171.082,282.349
-0.665,0.923,1.252,-13.733,-195.435,231.750
-0.636,0.792,1.572,7.751,-177.612,184.265
-0.560,0.569,1.577,32.288,-128.845,133.423
-0.419,0.404,1.519,31.738,-76.782,96.069
-0.288,0.229,1.359,26.001,-35.217,64.514
-0.224,0.124,1.194,26.367,-8.484,39.001
-0.146,0.107,1.078,28.259,5.127,23.071
-0.136,0.095,0.936,28.870,11.658,12.085
-0.184,-0.070,0.843,20.935,11.230,-0.366
-0.191,-0.140,0.914,7.263,3.784,-5.249
-0.194,-0.064,0.996,-0.122,-1.892,-2.747
-0.232,-0.027,1.000,-2.258,-1.038,-3.906
-0.238,-0.049,1.000,-2.747,0.610,-10.498
-0.232,-0.131,1.012,-4.883,1.160,-17.822
-0.190,-0.206,1.015,-6.714,2.625,-22.156
-0.158,-0.225,1.010,-6.531,3.418,-22.339
-0.142,-0.236,1.011,-3.662,2.869,-21.545
-0.129,-0.233,1.021,-0.977,1.648,-19.836
-0.125,-0.166,1.042,2.197,-0.183,-17.822
-0.137,-0.144,1.060,5.310,-0.793,-19.104
-0.156,-0.186,1.063,6.165,1.221,-22.400
-0.146,-0.224,1.037,5.493,4.456,-23.621
-0.125,-0.254,0.999,5.737,6.653,-21.912
-0.107,-0.269,0.981,5.005,6.104,-18.433
-0.078,-0.261,0.999,4.822,2.380,-13.611
-0.075,-0.268,1.012,5.005,-1.343,-9.094
-0.079,-0.229,1.024,4.395,-2.563,-5.249
-0.103,-0.192,1.031,4.883,-3.662,-2.014
-0.129,-0.181,1.018,5.432,-3.784,-0.977
-0.143,-0.224,1.019,3.540,-3.357,-1.343
-0.160,-0.226,1.052,0.916,-3.113,-1.221
-0.165,-0.196,1.043,0.610,-1.526,-0.427
-0.159,-0.181,1.036,1.038,-0.244,-0.977
-0.139,-0.166,1.020,1.526,1.465,-1.343
-0.131,-0.182,0.998,2.930,2.197,-1.953
-0.130,-0.176,1.000,3.540,1.465,-2.136
-0.135,-0.166,0.996,3.113,0.488,-2.380
-0.152,-0.158,0.997,2.441,-0.183,-3.235
-0.159,-0.174,0.996,1.404,-1.404,-4.333
-0.164,-0.171,0.992,0.549,-1.892,-4.761
-0.152,-0.179,0.990,0.366,-2.441,-5.737
-0.146,-0.186,1.000,0.427,-3.296,-6.165
-0.135,-0.200,1.001,0.427,-3.601,-6.042
-0.144,-0.204,1.024,0.122,-3.479,-5.371
-0.150,-0.209,1.039,-0.671,-2.502,-4.517
-0.145,-0.204,1.040,-1.099,-1.160,-3.113
-0.145,-0.187,1.025,-0.793,0.427,-2.014
-0.139,-0.187,1.000,-0.122,1.099,-1.587
-0.128,-0.186,0.982,0.061,0.427,-1.648
-0.123,-0.196,0.996,0.122,-1.648,-1.404
-0.122,-0.208,1.014,-0.183,-3.174,-0.916
-0.133,-0.176,1.024,0.793,-2.686,0.671
-0.141,-0.191,1.042,1.770,-2.197,0.854
-0.139,-0.202,1.039,0.732,-0.671,0.977
-0.133,-0.206,1.017,0.000,1.709,1.587
-0.125,-0.182,0.994,0.000,2.502,2.319
-0.121,-0.182,0.990,-0.305,0.916,2.686
-0.122,-0.184,1.003,-1.465,-0.977,2.625
-0.129,-0.188,1.004,-1.038,-0.916,3.357
-0.138,-0.189,1.007,-0.427,-0.732,3.601
-0.145,-0.186,1.011,-0.061,-1.221,3.967
-0.147,-0.192,1.016,0.610,-1.343,4.150
-0.138,-0.169,1.004,1.343,-0.732,4.761
-0.144,-0.172,0.997,1.831,-0.427,4.639
-0.148,-0.187,1.004,1.465,-1.526,3.296
-0.151,-0.182,1.014,1.465,-2.136,3.052
-0.156,-0.194,1.025,1.465,-1.892,2.502
-0.151,-0.211,1.031,0.610,-1.221,2.441
-0.138,-0.221,1.015,-0.671,0.122,3.418
-0.130,-0.221,1.019,-1.465,0.244,4.578
-0.129,-0.199,1.003,-1.160,0.183,6.226
-0.131,-0.176,1.004,-1.221,-1.099,6.897
-0.150,-0.189,1.021,-1.465,-2.502,6.348
-0.156,-0.168,1.038,-1.587,-2.441,6.042
-0.167,-0.152,1.042,-0.549,-1.526,5.737
-0.167,-0.163,1.026,-0.122,0.122,3.723
-0.152,-0.153,1.008,-0.244,1.465,2.686
-0.143,-0.166,1.005,0.732,0.427,1.343
-0.143,-0.190,1.010,1.587,-0.488,0.366
-0.135,-0.212,1.010,0.916,-0.488,0.549
-0.129,-0.212,1.015,0.366,-0.732,1.709
-0.130,-0.193,1.006,0.671,-0.305,3.479
-0.134,-0.195,1.006,0.305,-0.366,4.333
-0.133,-0.194,1.001,-0.366,-0.183,5.127
-0.128,-0.192,0.998,-0.427,-0.488,5.615
-0.135,-0.189,1.000,-0.305,-1.709,6.226
-0.140,-0.173,1.010,-0.488,-2.197,7.019
-0.143,-0.150,1.013,-0.549,-2.319,7.019
-0.151,-0.161,1.016,-0.610,-2.258,5.249
-0.148,-0.159,1.026,-0.305,-2.258,4.211
-0.141,-0.197,1.021,0.427,-1.648,3.296
-0.137,-0.198,1.009,-0.122,-0.305,3.723
-0.126,-0.200,1.014,-0.183,-0.610,4.700
-0.128,-0.202,1.017,-0.427,-0.854,5.798
-0.130,-0.209,1.020,-1.221,-0.671,6.775
-0.133,-0.190,1.019,-1.526,-0.488,8.118
-0.128,-0.154,1.003,-0.427,-0.122,9.277
-0.130,-0.149,0.995,0.183,-0.366,8.972
-0.133,-0.170,0.983,0.549,-1.343,7.751
-0.134,-0.161,1.014,1.038,-3.601,7.568
-0.140,-0.162,1.009,2.014,-3.479,7.385
-0.146,-0.169,1.013,2.441,-3.235,6.287
-0.150,-0.173,1.014,2.502,-3.296,5.615
-0.157,-0.191,1.013,1.831,-2.930,4.822
-0.158,-0.199,1.013,1.038,-2.686,4.822
-0.143,-0.169,1.009,1.160,-1.953,6.042
-0.138,-0.157,1.003,1.770,-1.770,6.592

-0.927,0.684,0.660,-87.463,90.332,-408.325
-1.056,0.191,0.653,-89.539,72.205,-459.717
-1.083,-0.274,0.669,-112.305,55.115,-481.812
-0.898,-0.691,0.811,-134.460,29.907,-476.257
-0.711,-0.797,1.151,-184.021,0.122,-443.115
-0.511,-0.841,1.483,-160.767,-8.179,-403.625
-0.389,-1.148,1.517,-118.835,7.263,-376.038
-0.260,-1.331,1.607,-104.980,23.621,-330.078
-0.139,-1.203,1.527,-116.333,38.147,-258.423
-0.036,-1.001,1.432,-102.783,48.218,-189.758
0.012,-0.806,1.315,-91.492,49.072,-133.606
0.044,-0.625,1.151,-76.477,49.438,-88.318
0.071,-0.386,0.998,-50.415,41.565,-49.561
0.076,-0.204,0.947,-25.940,24.353,-23.132
0.061,-0.109,0.955,-6.348,8.545,-9.155
0.026,-0.076,0.975,10.437,-1.587,-1.526
0.011,-0.057,1.036,25.208,-7.935,5.554
-0.009,-0.093,1.106,36.804,-11.108,11.902
0.020,-0.112,1.076,45.959,-9.644,21.057
0.078,0.060,1.042,50.598,-9.277,34.180
0.107,0.145,0.999,46.692,-8.972,37.109
0.097,0.123,0.964,36.926,-8.911,32.227
0.081,0.086,0.950,28.625,-10.315,28.931
0.068,0.083,1.005,24.048,-13.794,29.175
0.078,0.153,1.074,21.179,-16.541,31.067
0.071,0.249,1.096,14.954,-12.451,30.151
0.031,0.211,1.056,9.094,-5.676,21.912
-0.004,0.139,1.006,6.775,-1.282,14.587
-0.016,0.147,0.966,4.089,-0.183,13.245
-0.014,0.197,0.939,4.089,-2.014,14.404
-0.018,0.215,0.947,5.432,-4.761,12.634
-0.025,0.212,0.998,4.883,-6.836,9.033
-0.019,0.194,1.034,3.235,-6.714,5.554
-0.012,0.167,1.036,3.052,-5.066,2.869
-0.001,0.137,1.031,5.310,-3.906,1.221
0.009,0.128,1.033,7.751,-3.601,0.793
0.005,0.114,1.059,7.324,-3.662,0.305
0.009,0.104,1.050,6.165,-2.502,-0.549
0.004,0.082,1.016,6.592,-0.854,-0.671
-0.003,0.068,1.006,7.568,-0.854,-0.183
-0.005,0.080,1.015,7.629,-1.892,1.282
-0.002,0.115,1.028,7.568,-2.747,3.052
-0.006,0.110,1.023,7.935,-2.991,2.869
-0.008,0.113,1.015,8.972,-3.296,2.441
-0.011,0.141,1.018,9.216,-3.906,1.953
-0.017,0.144,1.019,7.568,-4.211,-0.305
-0.021,0.110,1.027,4.822,-4.395,-3.357
-0.021,0.074,1.048,3.723,-4.639,-4.395
-0.018,0.055,1.068,4.211,-4.456,-3.906
-0.016,0.061,1.062,5.920,-3.357,-2.136
-0.008,0.077,1.053,7.751,-2.319,0.122
-0.016,0.071,1.052,8.240,-1.953,0.916
-0.021,0.071,1.051,8.545,-1.770,1.770
-0.010,0.097,1.040,9.705,-1.282,3.113
-0.000,0.129,1.025,9.460,-0.916,3.296
-0.001,0.118,1.012,6.958,-0.732,1.587
-0.010,0.091,1.014,5.798,-1.160,-0.122
-0.007,0.111,1.024,6.042,-1.892,0.000
-0.008,0.141,1.015,6.287,-1.892,-0.122
-0.009,0.148,1.012,5.859,-1.709,-1.953
-0.012,0.112,1.006,4.456,-2.197,-4.700
-0.010,0.087,1.020,3.296,-2.991,-5.920
-0.006,0.079,1.049,3.113,-3.662,-5.676
-0.003,0.084,1.053,3.784,-2.747,-5.127
0.002,0.106,1.036,4.761,-1.038,-4.395
0.002,0.093,1.017,5.676,0.000,-5.005
0.001,0.061,1.017,6.592,-0.916,-5.981
0.004,0.061,1.029,6.897,-1.343,-5.737
0.002,0.066,1.044,7.080,-1.282,-4.944
0.008,0.068,1.044,8.118,-0.671,-4.333
0.013,0.065,1.016,7.996,0.427,-3.784
0.018,0.071,1.000,5.798,0.671,-3.662
0.016,0.080,0.996,3.479,-0.366,-3.906
0.008,0.075,1.010,2.441,-1.831,-4.639
0.003,0.070,1.029,1.526,-2.747,-5.371
0.000,0.078,1.024,0.793,-2.197,-5.249
-0.005,0.073,1.031,0.488,-1.709,-5.310
-0.008,0.076,1.038,1.648,-1.648,-5.554
-0.004,0.084,1.045,1.892,-1.404,-5.371
-0.000,0.075,1.032,1.221,-0.488,-5.676
0.000,0.055,1.028,1.526,-0.244,-5.798
0.002,0.051,1.027,2.502,-0.977,-5.249
0.008,0.073,1.033,4.028,-1.465,-3.601
0.004,0.075,1.036,5.249,-1.831,-3.113
0.002,0.067,1.029,6.104,-1.709,-3.235
0.010,0.097,1.033,5.859,-1.892,-2.380
0.008,0.092,1.016,4.272,-1.343,-2.991
-0.001,0.070,1.018,3.479,-1.526,-4.333
-0.011,0.071,1.047,2.991,-2.258,-4.700
-0.014,0.080,1.064,3.418,-2.319,-4.517
-0.009,0.091,1.052,2.808,-1.160,-4.517
0.001,0.094,1.038,3.418,-0.183,-5.188
0.001,0.089,1.032,4.028,0.183,-5.798
-0.001,0.078,1.024,3.662,0.305,-6.226
0.003,0.094,1.033,2.930,-0.488,-6.226
0.002,0.094,1.029,2.319,-0.854,-6.531
-0.004,0.066,1.035,2.136,-0.549,-7.446
-0.003,0.047,1.034,2.014,-0.549,-7.629
0.006,0.047,1.030,2.136,-0.671,-6.592
0.010,0.057,1.036,2.319,-1.160,-5.798
0.005,0.054,1.026,3.113,-0.793,-5.188
0.000,0.064,1.031,3.296,-0.732,-4.700
-0.002,0.089,1.026,2.686,-0.549,-4.272
-0.006,0.105,1.023,2.747,-0.427,-4.700
-0.006,0.103,1.037,4.028,-0.854,-5.920
-0.003,0.080,1.045,5.371,-0.244,-6.775
0.000,0.047,1.032,6.287,1.282,-7.080
0.008,0.034,1.013,5.249,1.953,-6.470
0.013,0.055,0.999,4.883,1.404,-5.554
0.016,0.086,1.001,3.540,-0.366,-4.761
0.001,0.103,1.011,1.282,-1.709,-5.432
-0.008,0.123,1.046,0.244,-2.502,-6.653
-0.008,0.127,1.042,-0.244,-2.136,-8.850
-0.007,0.096,1.005,-0.427,0.183,-11.475
0.002,0.072,1.028,0.671,-0.427,-12.878
-0.002,0.066,1.043,-0.427,-0.244,-12.939
-0.001,0.063,1.022,-1.404,1.099,-12.634
0.006,0.071,1.022,-1.831,1.221,-12.268
0.005,0.069,1.013,-3.174,0.793,-12.329

-0.312,-1.702,0.992,-9.033,19.287,67.749
-0.483,-1.973,0.976,29.236,7.019,152.283
-0.787,-1.802,0.986,95.337,-34.119,250.305
-0.935,-1.676,1.130,180.237,-93.140,337.280
-0.481,-0.588,1.989,202.942,-140.503,427.429
-0.450,-0.384,1.622,196.289,-109.131,479.553
-0.533,-0.067,1.305,146.179,-45.227,502.930
-0.439,0.536,1.397,87.524,-25.757,529.907
-0.323,0.985,1.390,44.128,-4.089,518.616
-0.143,1.118,1.054,26.611,26.855,461.670
-0.126,0.834,0.778,29.907,28.320,379.211
-0.201,0.514,0.570,22.034,2.502,308.472
-0.292,0.293,0.498,11.536,-25.696,261.780
-0.277,0.411,0.666,6.836,-62.866,232.971
-0.323,0.550,0.925,4.639,-92.224,204.895
-0.366,0.665,1.083,6.165,-99.731,169.495
-0.411,0.656,1.084,9.521,-92.896,130.615
-0.440,0.462,1.121,11.169,-82.947,90.210
-0.407,0.325,1.153,10.742,-68.054,60.913
-0.341,0.248,1.078,9.827,-49.438,40.955
-0.326,0.210,1.107,10.681,-38.513,23.865
-0.273,0.116,1.113,10.132,-29.236,5.798
-0.243,-0.036,1.016,8.484,-18.799,-7.080
-0.195,-0.105,1.007,4.089,-14.099,-10.864
-0.144,-0.026,1.039,2.686,-13.733,-10.437
-0.150,-0.017,1.038,8.728,-12.024,-12.085
-0.189,-0.155,1.008,9.583,-9.888,-19.409
-0.174,-0.195,1.062,7.141,-8.301,-21.423
-0.153,-0.175,1.037,5.554,-4.089,-18.799
-0.152,-0.173,1.049,5.005,-2.563,-17.273
-0.137,-0.138,1.052,3.479,-1.404,-16.113
-0.136,-0.131,1.055,3.296,-0.854,-16.724
-0.142,-0.144,1.027,3.235,0.061,-18.372
-0.126,-0.172,1.015,3.418,0.427,-19.287
-0.115,-0.227,1.009,2.258,0.183,-19.226
-0.118,-0.269,1.016,-0.305,0.305,-16.968
-0.102,-0.262,1.018,-0.549,-0.549,-12.451
-0.089,-0.214,1.042,0.549,-1.648,-7.263
-0.084,-0.183,1.045,0.854,-0.977,-4.211
-0.093,-0.214,1.031,0.793,0.610,-2.319
-0.086,-0.208,1.022,-0.427,1.831,0.549
-0.084,-0.179,1.010,-1.221,1.953,4.089
-0.094,-0.175,1.001,-1.343,1.099,6.287
-0.104,-0.174,1.000,-1.282,-0.061,7.996
-0.116,-0.148,1.000,-1.709,-0.977,9.216
-0.139,-0.122,1.007,-1.404,-2.319,9.277
-0.156,-0.102,1.006,0.427,-3.052,8.301
-0.173,-0.108,1.011,1.099,-3.479,5.981
-0.172,-0.120,1.032,2.258,-3.723,3.601
-0.169,-0.131,1.036,3.357,-3.235,1.892
-0.161,-0.122,1.036,3.174,-1.953,0.977
-0.155,-0.141,1.042,2.625,-0.610,-0.244
-0.146,-0.132,1.042,0.732,0.610,-1.160
-0.142,-0.108,1.040,-0.305,1.404,-1.831
-0.156,-0.182,1.022,-0.427,1.953,-4.089
-0.142,-0.202,1.027,-1.404,2.014,-3.845
-0.138,-0.159,1.029,-1.282,2.075,-1.160
-0.137,-0.142,1.021,0.305,2.075,-0.122
-0.132,-0.131,1.005,1.038,1.709,-0.244
-0.126,-0.143,1.001,0.977,0.977,-0.916
-0.127,-0.157,1.004,1.099,-0.122,-1.465
-0.126,-0.149,1.012,1.831,-0.977,-1.099
-0.133,-0.171,1.026,2.502,-1.221,-0.854
-0.132,-0.173,1.029,1.587,-0.061,-0.488
-0.126,-0.149,1.015,1.526,1.221,0.610
-0.124,-0.152,1.001,2.197,1.709,1.221
-0.125,-0.153,1.003,2.075,1.160,1.648
-0.126,-0.140,1.001,2.197,0.549,2.075
-0.136,-0.151,1.001,2.136,0.305,1.831
-0.140,-0.149,1.020,1.343,-0.549,1.465
-0.153,-0.146,1.020,0.977,-0.488,1.160
-0.152,-0.155,1.024,-0.122,-0.488,-0.183
-0.143,-0.158,1.024,-0.244,-0.244,-0.488
-0.136,-0.189,1.019,0.610,0.183,-0.183
-0.121,-0.183,1.011,0.183,0.732,1.465
-0.114,-0.153,1.006,-0.244,0.793,3.052
-0.118,-0.145,1.005,-0.244,0.061,3.357
-0.130,-0.155,1.027,-0.671,-0.732,3.418
-0.127,-0.146,1.040,-0.793,-0.916,3.662
-0.131,-0.144,1.032,-0.061,0.000,3.845
-0.136,-0.141,1.026,0.305,0.793,3.723
-0.137,-0.128,1.010,0.854,0.427,3.479
-0.136,-0.143,1.005,1.343,-0.366,1.892
-0.136,-0.140,1.015,1.099,-1.404,1.282
-0.142,-0.146,1.034,1.648,-2.319,0.488
-0.151,-0.169,1.031,1.343,-1.587,-0.244
-0.142,-0.177,1.037,0.549,0.061,0.549
-0.125,-0.172,1.017,0.366,1.770,2.075
-0.112,-0.153,1.001,0.244,2.563,3.357
-0.120,-0.151,1.005,-0.244,1.282,3.784
-0.123,-0.151,1.005,-1.160,0.244,3.662
-0.129,-0.152,1.015,-1.465,-0.793,3.845
-0.135,-0.141,1.027,-0.977,-1.038,3.845
-0.145,-0.135,1.028,0.061,-1.099,3.784
-0.145,-0.118,1.006,0.671,-0.427,2.991
-0.145,-0.110,1.010,1.282,-1.160,1.709
-0.144,-0.134,1.005,2.014,-2.014,-0.488
-0.146,-0.156,1.022,1.831,-2.930,-2.014
-0.143,-0.181,1.033,1.282,-2.197,-1.709
-0.137,-0.178,1.031,0.671,-0.610,-0.427
-0.135,-0.170,1.024,0.244,0.366,1.038
-0.130,-0.152,1.017,0.366,1.343,2.014
-0.114,-0.160,0.999,0.427,1.770,2.136
-0.102,-0.158,0.987,-0.183,1.221,2.686
-0.102,-0.153,0.989,0.122,-0.671,3.540
-0.112,-0.147,1.004,0.977,-3.113,4.456
-0.120,-0.140,1.018,1.160,-3.845,4.822
-0.133,-0.136,1.006,1.770,-3.662,4.517
-0.138,-0.126,1.014,2.136,-3.784,4.028
-0.146,-0.132,1.022,2.563,-4.028,2.869
-0.145,-0.149,1.036,2.075,-3.662,1.648
-0.143,-0.154,1.041,1.221,-2.502,1.221
-0.140,-0.153,1.029,1.160,-0.488,1.465
-0.129,-0.152,1.016,1.343,0.671,2.014
-0.121,-0.144,1.001,1.526,0.610,2.014
-0.117,-0.153,0.998,1.282,0.000,1.831
-0.121,-0.163,1.008,0.793,-1.282,2.258
-0.124,-0.167,1.016,0.854,-2.136,3.113
-0.132,-0.152,1.039,0.610,-2.502,4.211

-0.647,0.735,0.979,50.293,18.616,-272.583
-0.761,0.495,0.922,56.580,38.452,-312.073
-0.779,0.317,0.927,59.570,51.758,-339.966
-0.733,0.101,0.970,63.171,60.364,-357.361
-0.654,-0.169,0.991,61.340,71.411,-366.943
-0.523,-0.394,0.985,49.255,85.632,-364.746
-0.411,-0.586,0.900,48.523,97.656,-353.027
-0.338,-0.798,0.854,38.147,103.027,-334.106
-0.317,-0.952,0.786,0.977,104.004,-309.692
-0.283,-1.031,0.792,-26.367,95.215,-279.053
-0.255,-1.093,0.892,-41.504,79.041,-245.972
-0.210,-1.056,0.990,-50.293,65.491,-208.923
-0.174,-1.014,0.962,-33.325,57.007,-171.021
-0.173,-1.028,0.979,-13.062,42.480,-135.864
-0.180,-1.079,1.000,5.310,27.588,-95.703
-0.202,-1.184,0.984,7.507,17.761,-51.758
-0.247,-1.363,0.943,-3.967,12.817,-5.005
-0.339,-1.609,0.879,-22.888,9.338,45.654
-0.437,-1.782,0.832,-20.752,-6.042,104.492
-0.656,-1.963,0.720,21.118,-41.626,173.218
-0.727,-1.869,0.839,86.792,-98.938,244.934
-0.699,-1.121,1.050,132.324,-163.330,322.876
-0.454,-0.091,1.689,111.511,-197.144,376.953
-0.258,0.075,1.520,98.389,-176.758,376.526
-0.208,0.319,1.254,85.266,-143.677,356.750
-0.163,0.517,1.174,30.151,-126.831,342.529
-0.085,0.448,1.050,-30.579,-102.478,313.293
-0.012,0.419,0.996,-65.918,-80.383,282.593
-0.116,0.295,0.984,-68.970,-71.716,252.075
-0.228,0.191,0.914,-60.364,-63.660,226.868
-0.235,0.208,0.941,-49.927,-63.477,209.717
-0.263,0.185,1.066,-45.044,-66.223,192.017
-0.302,0.160,1.088,-41.626,-56.824,170.959
-0.361,0.102,1.003,-34.302,-43.091,151.733
-0.405,0.063,0.938,-30.518,-34.424,135.193
-0.433,0.036,0.946,-29.846,-32.715,122.681
-0.421,0.074,1.025,-32.166,-31.982,111.877
-0.392,0.152,1.062,-28.992,-28.198,101.746
-0.394,0.117,1.015,-23.560,-21.118,87.097
-0.396,0.008,0.940,-18.250,-18.616,70.984
-0.370,-0.065,1.006,-15.076,-22.766,60.791
-0.314,0.013,0.999,-15.808,-17.944,53.955
-0.266,-0.015,1.099,-12.207,-16.235,42.908
-0.248,-0.103,1.048,-10.254,-7.385,32.532
-0.234,-0.096,0.971,-10.254,1.953,27.283
-0.231,-0.105,0.927,-8.240,4.395,21.851
-0.227,-0.131,0.915,-6.165,3.052,15.503
-0.235,-0.218,0.969,-5.310,-0.488,9.460
-0.233,-0.209,0.999,-6.165,-1.282,7.202
-0.219,-0.188,1.031,-4.272,-0.916,6.653
-0.209,-0.213,1.031,-1.465,0.610,4.822
-0.196,-0.247,1.017,-1.465,2.869,2.502
-0.190,-0.215,1.021,-0.366,2.808,1.953
-0.185,-0.222,1.015,0.000,2.380,1.160
-0.190,-0.232,1.017,-1.282,2.441,0.366
-0.180,-0.218,1.013,-1.160,3.174,0.916
-0.180,-0.197,0.995,0.244,3.906,1.587
-0.161,-0.227,0.963,1.282,3.479,0.427
-0.145,-0.242,0.975,1.831,0.854,0.793
-0.136,-0.275,0.975,1.221,-1.587,2.686
-0.149,-0.313,1.014,-0.854,-3.540,5.981
-0.161,-0.282,1.065,-2.625,-4.150,12.085
-0.190,-0.231,1.057,-2.686,-2.319,16.785
-0.196,-0.177,1.033,-2.625,0.183,18.250
-0.192,-0.141,1.006,-0.671,1.221,17.578
-0.207,-0.125,0.968,2.502,0.793,14.709
-0.209,-0.131,0.990,1.831,-0.916,10.498
-0.214,-0.163,1.022,1.282,-3.052,5.676
-0.220,-0.166,1.018,1.282,-1.038,3.906
-0.200,-0.192,1.018,-0.061,0.916,1.953
-0.183,-0.207,1.010,-1.282,1.587,0.244
-0.165,-0.214,0.993,-1.892,1.892,0.366
-0.161,-0.229,1.000,-2.869,1.160,0.977
-0.157,-0.228,1.008,-3.845,0.183,2.319
-0.166,-0.234,1.027,-4.456,-0.183,3.967
-0.157,-0.201,1.021,-4.272,0.549,5.981
-0.160,-0.179,1.006,-3.418,1.404,7.324
-0.155,-0.170,0.992,-1.404,1.343,7.385
-0.163,-0.172,0.993,0.244,0.610,6.592
-0.177,-0.208,1.016,0.183,-0.549,5.554
-0.178,-0.194,1.041,-1.709,-0.610,5.127
-0.173,-0.189,1.023,-2.258,1.038,4.883
-0.178,-0.217,1.000,-2.441,2.380,4.395
-0.159,-0.181,0.980,-3.052,3.357,5.066
-0.161,-0.193,0.973,-1.892,2.075,4.639
-0.163,-0.221,0.978,-2.869,0.549,3.723
-0.164,-0.201,1.008,-2.991,-0.793,4.639
-0.172,-0.214,1.010,-1.770,-0.610,5.493
-0.169,-0.188,1.016,-1.648,0.732,6.592
-0.169,-0.214,0.988,-0.732,2.502,6.836
-0.163,-0.209,0.975,-0.610,2.502,7.446
-0.160,-0.165,0.966,-0.610,1.282,8.118
-0.169,-0.151,0.973,-0.183,-0.427,6.836
-0.181,-0.168,0.978,-0.122,-1.404,4.333
-0.187,-0.160,1.001,0.427,-2.136,2.808
-0.195,-0.162,1.000,1.526,-1.282,1.282
-0.186,-0.208,1.001,1.831,-0.427,-0.793
-0.177,-0.243,1.013,0.977,-0.732,-1.587
-0.167,-0.241,1.006,0.183,0.244,-0.305
-0.163,-0.244,1.001,-0.610,0.977,1.587
-0.159,-0.209,1.001,-1.465,0.977,3.357
-0.161,-0.221,1.004,-0.671,0.732,4.272
-0.159,-0.207,1.001,-1.160,1.099,5.005
-0.159,-0.205,0.994,-0.671,0.732,5.859
-0.164,-0.200,0.989,0.122,-0.122,6.104
-0.167,-0.183,1.002,-0.244,-0.977,6.409
-0.172,-0.153,1.001,0.244,-1.099,5.920
-0.173,-0.140,1.001,1.221,-0.183,4.822
-0.179,-0.141,1.000,1.892,0.366,2.258
-0.175,-0.163,0.997,2.380,1.038,-0.244
-0.164,-0.217,0.981,1.892,1.648,-1.892
-0.149,-0.243,0.995,0.916,1.465,-1.465
-0.144,-0.231,1.005,0.732,0.610,0.793
-0.143,-0.206,1.001,0.488,0.549,2.747
-0.156,-0.230,1.003,0.305,0.061,3.479
-0.154,-0.223,1.012,-0.488,-0.244,4.456
-0.153,-0.200,0.999,0.000,0.183,6.348
-0.147,-0.191,0.988,0.977,0.061,6.958
-0.148,-0.185,0.998,1.526,-0.977,7.019

-0.529,1.372,1.093,36.377,29.785,-197.937
-0.715,1.299,1.119,39.856,39.673,-267.883
-0.875,1.116,1.124,32.715,59.998,-336.548
-1.000,0.689,0.986,24.048,83.191,-392.090
-0.953,0.388,1.118,0.366,103.882,-427.856
-0.895,0.018,1.184,-0.977,125.305,-452.454
-0.828,-0.237,1.076,2.686,150.635,-462.463
-0.757,-0.605,0.846,-16.602,172.241,-459.961
-0.682,-1.043,0.682,-58.716,177.368,-451.538
-0.563,-1.195,0.557,-88.440,156.921,-419.678
-0.424,-1.234,0.648,-94.360,118.896,-375.549
-0.377,-1.252,0.861,-142.212,82.214,-326.233
-0.357,-1.049,0.979,-177.246,58.716,-267.517
-0.247,-1.164,0.995,-90.088,41.565,-231.018
-0.215,-1.448,1.107,-3.174,19.897,-192.139
-0.186,-1.613,1.226,13.000,5.981,-124.329
-0.151,-1.524,1.174,-0.549,9.216,-40.833
-0.176,-1.691,1.044,-7.507,10.193,27.954
-0.263,-1.897,1.057,7.446,-8.057,96.497
-0.394,-1.721,1.031,45.471,-37.292,175.171
-0.575,-1.456,1.184,132.874,-83.801,248.413
-0.605,-0.893,1.164,181.702,-122.131,307.373
-0.447,-0.204,1.111,181.946,-143.433,347.229
-0.344,0.258,1.334,133.179,-153.625,354.919
-0.308,0.044,1.071,77.515,-126.343,336.182
-0.089,0.160,0.934,40.039,-102.112,323.242
-0.052,0.340,0.961,2.991,-102.234,324.219
-0.082,0.214,0.921,-22.034,-95.764,299.866
-0.170,0.084,0.977,-22.217,-99.426,277.222
-0.164,0.160,1.120,-11.414,-108.948,270.325
-0.187,0.101,1.170,-4.211,-106.384,260.864
-0.228,-0.106,1.046,-4.089,-88.684,241.455
-0.251,-0.028,0.998,-15.259,-74.768,236.694
-0.260,0.149,1.029,-27.771,-69.336,235.596
-0.343,0.270,1.012,-39.978,-61.768,221.375
-0.438,0.382,0.993,-47.302,-52.856,202.698
-0.530,0.294,0.982,-44.312,-47.729,176.758
-0.523,0.244,1.002,-36.804,-41.504,154.968
-0.524,0.141,1.058,-27.405,-38.208,135.803
-0.461,-0.071,1.158,-20.508,-29.419,117.676
-0.413,0.107,1.038,0.000,-19.043,112.549
-0.317,0.170,1.123,6.531,-17.334,107.788
-0.276,0.057,0.994,4.395,-8.057,89.050
-0.255,0.023,0.916,-0.183,-0.244,73.792
-0.252,-0.024,0.905,0.244,-0.977,62.500
-0.254,-0.025,0.919,0.305,-2.991,52.856
-0.268,-0.012,0.981,2.014,-4.761,43.823
-0.296,-0.077,0.995,3.845,-3.357,32.959
-0.293,-0.108,1.012,2.808,-1.099,21.912
-0.264,-0.179,0.986,1.099,0.793,12.878
-0.245,-0.240,0.974,0.000,1.099,6.409
-0.214,-0.198,1.005,-0.977,-1.465,4.700
-0.216,-0.204,1.036,-0.732,-3.113,2.686
-0.224,-0.231,1.033,-2.380,-1.343,-0.916
-0.217,-0.230,1.062,-2.930,-0.061,-2.869
-0.207,-0.209,1.027,-1.892,3.174,-3.601
-0.183,-0.200,0.997,-1.892,5.920,-4.700
-0.159,-0.212,0.959,-2.563,6.348,-5.859
-0.140,-0.190,0.959,-2.014,4.456,-5.676
-0.135,-0.157,0.943,0.610,1.587,-5.249
-0.152,-0.197,0.956,3.479,-1.770,-6.165
-0.170,-0.254,0.997,5.188,-4.822,-6.409
-0.182,-0.281,1.040,4.333,-5.493,-4.883
-0.178,-0.273,1.054,2.747,-3.784,-1.709
-0.175,-0.252,1.019,1.587,-0.427,1.770
-0.162,-0.225,0.973,1.160,1.953,4.517
-0.156,-0.198,0.951,2.136,-0.183,6.653
-0.170,-0.183,0.972,3.052,-3.235,7.507
-0.202,-0.184,1.002,3.784,-4.578,7.507
-0.216,-0.202,1.044,4.272,-4.456,6.592
-0.224,-0.206,1.058,3.052,-2.502,5.188
-0.206,-0.153,1.029,2.808,0.854,4.333
-0.189,-0.192,0.988,3.540,2.502,1.892
-0.174,-0.251,0.966,2.319,2.014,-0.183
-0.159,-0.237,0.991,1.526,-0.732,1.282
-0.162,-0.226,1.005,1.953,-2.869,4.028
-0.174,-0.211,1.013,1.404,-3.052,5.554
-0.195,-0.201,1.020,1.221,-3.052,6.409
-0.204,-0.191,1.038,0.549,-2.808,5.859
-0.206,-0.191,1.034,1.160,-2.258,4.211
-0.200,-0.217,1.009,1.099,-0.244,2.502
-0.185,-0.219,1.000,0.366,0.793,2.563
-0.177,-0.212,0.999,0.488,0.977,2.930
-0.179,-0.215,0.994,0.671,0.793,2.869
-0.170,-0.204,1.002,-0.061,0.610,2.930
-0.174,-0.245,0.998,0.183,0.488,2.502
-0.166,-0.257,0.992,-0.244,1.404,4.089
-0.164,-0.223,0.990,0.000,0.732,6.897
-0.163,-0.186,0.964,1.343,0.366,8.301
-0.173,-0.156,0.963,2.136,-1.709,7.446
-0.191,-0.175,0.996,3.540,-3.723,4.822
-0.213,-0.199,1.026,4.456,-4.211,1.953
-0.224,-0.223,1.041,4.456,-2.625,0.061
-0.217,-0.227,1.011,3.418,0.671,-0.916
-0.202,-0.228,0.970,2.014,3.174,-1.526
-0.180,-0.239,0.957,1.404,2.319,-1.892
-0.172,-0.239,0.961,0.916,0.427,-1.221
-0.167,-0.240,0.980,0.427,-1.099,0.061
-0.172,-0.222,1.005,0.671,-1.953,1.709
-0.181,-0.217,1.004,1.892,-1.343,2.441
-0.182,-0.205,1.001,2.136,-0.366,2.563
-0.191,-0.202,1.004,2.502,-0.061,1.831
-0.185,-0.217,0.999,3.113,-0.122,0.671
-0.184,-0.213,0.993,3.479,-0.122,-0.061
-0.187,-0.201,0.988,3.845,-0.488,-0.366
-0.190,-0.216,0.989,3.967,-1.343,-1.465
-0.195,-0.241,1.008,3.357,-1.831,-2.441
-0.198,-0.261,1.027,2.502,-1.160,-2.380
-0.194,-0.270,1.017,1.221,0.977,-1.465
-0.177,-0.235,1.001,0.244,2.869,0.366
-0.166,-0.208,0.966,0.000,3.357,1.648
-0.162,-0.199,0.962,0.122,1.282,1.892
-0.170,-0.201,0.970,0.671,-1.587,1.526
-0.179,-0.181,0.999,1.709,-3.479,1.282
-0.187,-0.179,1.002,3.235,-3.540,0.427
-0.190,-0.217,1.001,3.601,-2.502,-1.343
-0.183,-0.229,0.996,2.930,-1.526,-1.953
-0.170,-0.215,0.998,3.113,-1.343,-1.404
-0.170,-0.222,0.988,3.113,-1.038,-1.343

-0.625,-1.001,0.879,-48.645,192.932,-391.418
-0.562,-1.031,0.830,-114.624,195.801,-349.609
-0.514,-0.751,0.734,-171.936,185.852,-312.683
-0.479,-0.669,0.646,-190.613,157.593,-290.222
-0.382,-0.738,0.823,-162.781,105.225,-272.766
-0.271,-0.847,0.996,-146.057,62.561,-240.601
-0.188,-0.699,1.179,-165.405,42.297,-189.270
-0.085,-0.641,1.229,-162.109,38.147,-146.729
0.000,-0.603,1.222,-112.305,32.776,-116.760
0.062,-0.511,1.110,-68.970,27.344,-88.623
0.101,-0.424,1.094,-32.166,18.188,-65.735
0.129,-0.333,1.105,-13.428,11.047,-47.913
0.116,-0.255,1.040,-10.864,10.132,-33.508
0.115,-0.153,0.960,-5.554,8.057,-21.667
0.122,-0.044,0.968,1.892,-1.160,-14.771
0.114,-0.002,0.983,1.282,-6.592,-13.062
0.094,-0.015,1.007,-4.700,-7.446,-13.489
0.083,-0.028,0.964,-5.920,-7.874,-12.756
0.080,-0.050,1.017,0.244,-12.817,-11.902
0.074,-0.051,1.081,2.014,-17.029,-8.911
0.069,-0.039,1.064,5.249,-15.198,-4.272
0.066,-0.034,1.099,7.202,-13.611,0.000
0.060,-0.021,1.081,5.737,-10.010,3.906
0.059,-0.012,1.057,7.812,-6.531,7.080
0.052,0.055,1.024,8.667,-5.005,11.292
0.039,0.120,0.996,7.080,-4.272,12.817
0.030,0.146,0.985,5.310,-4.395,9.827
0.031,0.172,1.000,2.930,-5.432,6.287
0.017,0.173,0.987,-0.122,-5.615,2.197
0.014,0.161,0.991,-0.854,-6.226,-2.441
0.025,0.137,1.013,-1.282,-7.568,-6.042
0.032,0.137,1.021,-3.479,-7.690,-8.240
0.026,0.077,1.028,-3.479,-7.263,-10.925
0.024,0.028,1.079,-0.916,-7.751,-12.207
0.035,0.011,1.086,-0.427,-5.798,-10.315
0.042,0.004,1.082,-0.122,-3.479,-7.690
0.044,0.005,1.083,1.099,-1.709,-5.127
0.048,0.004,1.054,1.282,-0.427,-3.052
0.044,0.031,1.025,0.488,0.427,-1.282
0.036,0.091,1.033,-0.977,-1.160,-0.427
0.022,0.111,1.005,-5.127,-2.014,-2.136
0.013,0.075,1.017,-7.385,-3.235,-5.188
0.015,0.056,1.049,-5.615,-5.066,-6.287
0.016,0.055,1.066,-2.197,-5.249,-5.859
0.014,0.042,1.075,1.526,-4.822,-5.554
0.025,0.041,1.064,4.456,-4.150,-4.517
0.038,0.049,1.054,6.714,-3.662,-3.052
0.043,0.050,1.048,6.409,-2.625,-1.953
0.036,0.035,1.068,7.202,-2.625,-1.221
0.043,0.036,1.056,7.507,-1.709,-0.244
0.041,0.061,1.031,5.493,-0.122,1.587
0.030,0.056,1.018,4.395,0.183,1.831
0.026,0.060,1.037,6.287,-1.892,1.953
0.029,0.091,1.041,8.179,-2.441,2.747
0.024,0.102,1.024,8.179,-1.526,2.258
0.026,0.093,1.008,6.042,-1.587,0.244
0.038,0.074,1.010,3.784,-2.380,-1.404
0.044,0.046,1.028,2.197,-2.991,-2.502
0.054,0.066,1.036,1.770,-2.502,-1.953
0.044,0.063,1.013,-1.892,-0.244,-1.465
0.035,0.045,1.023,-2.747,-0.183,-2.380
0.037,0.050,1.053,-1.221,-1.587,-1.953
0.035,0.056,1.041,0.183,-0.671,-1.282
0.036,0.047,1.038,1.038,-0.061,-1.099
0.039,0.040,1.046,0.854,-0.122,-0.916
0.048,0.042,1.030,1.953,0.488,-0.122
0.053,0.042,1.014,3.784,0.427,0.793
0.053,0.062,1.001,3.967,0.061,1.343
0.050,0.082,1.000,2.686,-0.916,1.038
0.043,0.074,0.999,0.793,-1.709,-0.183
0.041,0.064,1.009,2.014,-2.869,-0.854
0.037,0.056,1.029,2.808,-3.601,-0.916
0.037,0.054,1.032,3.845,-3.296,-0.977
0.050,0.047,1.040,5.310,-3.052,-0.549
0.049,0.035,1.028,4.272,-1.709,0.122
0.046,0.018,1.012,2.441,-0.732,1.099
0.051,0.027,1.036,2.625,-2.502,2.625
0.044,0.028,1.048,3.174,-3.113,3.967
0.038,0.029,1.047,4.089,-2.319,5.188
0.037,0.019,1.056,4.211,-2.136,6.531
0.033,0.011,1.035,3.601,-1.465,8.057
0.035,0.006,1.023,5.127,-1.953,10.254
0.024,-0.014,1.047,8.118,-3.418,12.390
0.004,-0.089,1.068,5.493,-2.380,14.771
-0.020,-0.202,1.050,-3.662,3.052,19.531
-0.059,-0.418,1.124,-9.216,6.836,29.236
-0.184,-0.798,1.132,-7.446,14.893,46.875
-0.234,-1.014,1.089,8.118,21.179,84.045
-0.268,-1.143,1.085,47.241,12.451,137.390
-0.333,-1.193,1.140,94.055,-6.775,190.918
-0.377,-1.021,1.029,147.888,-30.151,243.164
-0.423,-0.780,0.948,199.768,-63.538,289.185
-0.383,-0.596,1.093,214.600,-103.394,323.608
-0.263,-0.136,1.583,189.026,-117.432,354.919
-0.324,-0.054,1.269,133.179,-77.271,377.563
-0.423,-0.070,0.944,81.238,-36.316,392.883
-0.383,-0.114,0.792,54.932,-33.020,391.479
-0.349,-0.011,0.789,46.509,-48.584,390.747
-0.360,-0.025,0.708,48.340,-67.871,385.681
-0.232,0.229,0.813,52.979,-94.055,378.723
-0.182,0.597,0.976,75.378,-127.441,361.267
-0.132,0.796,1.165,70.679,-145.752,325.928
-0.114,0.834,1.260,59.082,-140.503,281.616
-0.198,0.537,1.354,40.039,-123.596,229.797
-0.278,0.245,1.121,16.174,-88.562,183.044
-0.329,0.119,1.040,17.456,-74.829,153.320
-0.355,0.163,1.137,27.832,-81.177,133.118
-0.376,0.212,1.090,27.893,-70.618,117.371
-0.334,0.195,1.138,25.757,-59.875,98.755
-0.305,0.014,1.136,21.179,-47.485,76.050
-0.287,-0.079,1.104,14.648,-31.982,59.814
-0.274,-0.047,1.087,13.855,-21.973,52.429
-0.236,-0.012,1.064,11.658,-12.451,44.312
-0.227,-0.065,1.033,8.484,-5.188,33.020
-0.223,-0.141,0.986,4.150,0.427,21.362
-0.225,-0.154,0.981,1.465,3.235,13.977
-0.222,-0.185,0.990,0.977,3.174,7.935
-0.207,-0.229,0.986,-0.305,4.150,2.258
-0.178,-0.278,0.973,-0.732,3.906,-1.953

-0.553,-0.599,1.016,127.197,-97.595,312.134
-0.290,0.036,1.229,104.065,-111.023,348.999
-0.230,0.074,1.022,107.910,-111.206,336.060
-0.192,0.147,0.876,104.553,-114.502,312.561
-0.166,0.310,0.931,88.135,-133.118,299.866
-0.086,0.587,1.128,60.059,-143.005,283.752
-0.001,0.629,1.325,40.039,-138.855,253.723
-0.071,0.303,1.356,15.991,-120.972,216.919
-0.060,-0.070,1.231,-0.122,-86.975,186.584
-0.030,-0.090,1.187,-7.812,-60.913,182.861
-0.047,-0.006,1.146,-2.991,-47.119,184.937
-0.079,0.042,1.072,2.991,-35.583,177.856
-0.123,-0.008,0.910,4.395,-29.968,164.551
-0.132,-0.086,0.845,-2.197,-34.363,150.879
-0.131,-0.107,0.855,-6.409,-46.082,141.296
-0.126,0.021,0.946,-2.014,-56.763,135.864
-0.179,0.094,1.047,6.348,-64.636,127.197
-0.235,0.020,1.129,7.324,-61.951,111.328
-0.255,-0.143,1.139,0.000,-48.218,96.680
-0.210,-0.198,1.124,-11.658,-29.846,89.172
-0.187,-0.161,0.975,-12.451,-16.968,83.984
-0.162,-0.189,0.982,-7.935,-17.578,75.256
-0.152,-0.140,0.970,-2.197,-19.287,71.838
-0.162,-0.092,0.982,3.845,-18.738,67.932
-0.172,-0.063,0.997,1.221,-16.785,59.265
-0.186,-0.092,0.996,0.061,-14.221,50.049
-0.195,-0.096,0.997,-1.343,-10.132,40.955
-0.206,-0.059,1.002,4.089,-7.812,33.020
-0.210,-0.125,0.993,9.888,-6.409,22.034
-0.211,-0.213,0.987,9.216,-4.395,11.292
-0.191,-0.249,0.981,9.094,-4.150,5.859
-0.165,-0.311,0.977,5.981,-3.418,3.052
-0.123,-0.362,0.968,2.136,-3.662,3.113
-0.097,-0.342,0.982,1.770,-4.517,7.324
-0.083,-0.291,0.999,3.784,-5.493,11.292
-0.102,-0.255,1.013,5.615,-5.493,13.062
-0.117,-0.240,0.990,6.775,-4.028,12.390
-0.125,-0.246,0.981,6.042,-3.296,10.071
-0.119,-0.216,1.001,4.456,-3.418,7.507
-0.113,-0.243,0.985,4.700,-3.113,4.150
-0.121,-0.291,0.999,2.563,-2.014,0.488
-0.113,-0.274,1.014,1.160,-2.441,-0.732
-0.111,-0.295,0.990,1.404,-0.488,-1.465
-0.098,-0.310,0.973,1.709,0.061,-1.526
-0.098,-0.293,0.979,3.296,-0.916,-0.122
-0.108,-0.295,0.970,4.944,-1.709,0.183
-0.111,-0.354,0.963,5.005,-2.197,0.427
-0.117,-0.348,0.984,3.418,-3.052,2.380
-0.120,-0.305,0.995,2.502,-3.235,5.432
-0.119,-0.272,0.992,2.991,-2.686,6.592
-0.127,-0.261,0.984,4.211,-2.136,6.470
-0.134,-0.234,0.987,5.432,-2.258,4.944
-0.139,-0.217,0.993,7.324,-1.953,2.502
-0.139,-0.254,0.993,7.568,-1.160,-1.587
-0.130,-0.297,0.988,6.653,-0.122,-4.700
-0.115,-0.348,0.988,5.493,0.916,-5.371
-0.106,-0.336,0.995,4.272,1.343,-3.235
-0.097,-0.312,0.975,4.272,1.099,-0.671
-0.098,-0.309,0.980,3.418,-0.244,0.183
-0.111,-0.323,0.973,2.441,-1.526,-0.549
-0.109,-0.317,0.994,2.686,-3.418,-0.244
-0.117,-0.262,1.003,3.906,-3.845,1.038
-0.121,-0.266,0.988,4.822,-2.747,0.183
-0.121,-0.289,0.983,4.944,-2.197,-1.709
-0.121,-0.292,0.995,5.432,-2.869,-2.625
-0.127,-0.302,1.008,6.042,-3.357,-3.174
-0.136,-0.327,1.016,4.944,-2.563,-4.272
-0.130,-0.331,1.006,3.906,-0.916,-4.089
-0.130,-0.353,1.016,2.747,0.000,-3.479
-0.112,-0.321,1.001,1.709,1.648,-1.282
-0.107,-0.316,0.986,1.648,2.441,0.122
-0.104,-0.301,0.974,1.709,1.892,0.916
-0.097,-0.303,0.957,2.136,1.099,1.160
-0.107,-0.327,0.973,2.075,-0.916,1.038
-0.117,-0.322,0.999,1.709,-2.808,1.587
-0.126,-0.307,1.000,1.465,-2.686,2.502
-0.124,-0.292,0.998,1.465,-2.136,2.075
-0.117,-0.302,0.978,1.587,-1.526,0.793
-0.116,-0.304,0.986,1.099,-2.014,-0.305
-0.124,-0.314,0.998,0.854,-2.380,-0.305
-0.125,-0.299,1.010,1.221,-1.465,0.000
-0.123,-0.293,0.992,1.526,0.671,0.122
-0.113,-0.297,0.969,1.404,2.197,-0.671
-0.101,-0.305,0.959,0.793,1.587,-1.343
-0.106,-0.337,0.969,0.061,-0.183,-1.831
-0.099,-0.328,1.001,-0.671,-2.075,-0.671
-0.113,-0.313,0.997,-0.183,-2.014,1.221
-0.115,-0.308,1.001,-0.244,-1.587,2.136
-0.114,-0.287,0.985,0.244,-1.221,2.380
-0.110,-0.280,0.957,1.343,-0.488,1.709
-0.106,-0.277,0.988,1.770,-2.563,0.977
-0.116,-0.286,0.983,3.052,-3.174,0.122
-0.125,-0.315,0.997,3.052,-3.174,-0.610
-0.131,-0.308,1.007,2.319,-2.625,-0.305
-0.130,-0.315,1.005,1.892,-1.648,-0.732
-0.126,-0.332,0.989,0.854,-0.183,-1.038
-0.113,-0.310,1.001,0.122,-0.122,-0.732
-0.109,-0.308,0.966,0.244,0.305,-0.366
-0.107,-0.306,0.980,-0.488,-0.549,0.183
-0.110,-0.282,1.001,-0.061,-2.136,0.732
-0.118,-0.260,0.978,1.221,-0.916,0.916
-0.117,-0.281,0.975,1.709,-1.099,-1.038
-0.112,-0.313,0.979,1.648,-1.709,-2.563
-0.111,-0.314,0.987,1.770,-1.526,-2.319
-0.114,-0.322,1.008,1.099,-1.465,-1.465
-0.119,-0.312,1.011,1.099,-0.671,-0.366
-0.114,-0.290,0.998,1.709,0.916,0.183
-0.113,-0.293,0.986,1.709,1.221,-0.610
-0.116,-0.289,0.976,1.953,0.488,-1.282
-0.119,-0.294,0.997,1.648,-0.732,-2.136
-0.119,-0.309,0.994,1.099,-0.488,-2.930
-0.112,-0.310,1.006,0.488,0.061,-2.869
-0.106,-0.323,1.000,-0.122,0.671,-2.075
-0.103,-0.307,0.985,-0.244,1.343,-1.282
-0.115,-0.279,0.990,0.000,-0.183,-0.427
-0.123,-0.278,1.002,1.282,-1.221,-1.282
-0.129,-0.297,0.996,0.854,-0.183,-2.319
-0.122,-0.293,1.009,-0.122,0.305,-3.052
-0.109,-0.274,1.017,0.183,0.732,-3.601

-0.502,-1.060,1.117,-262.390,96.497,-331.787
-0.377,-0.777,1.159,-350.403,78.552,-277.771
-0.302,-0.718,1.149,-268.005,63.599,-250.610
-0.195,-0.775,1.143,-162.659,45.044,-227.295
-0.103,-0.710,1.114,-104.370,35.034,-189.392
-0.052,-0.522,1.094,-73.792,32.654,-148.254
0.004,-0.326,1.025,-54.871,28.625,-114.563
0.047,-0.208,0.985,-36.072,22.278,-92.163
0.068,-0.199,0.933,-28.259,17.334,-78.491
0.078,-0.253,0.948,-23.621,8.606,-68.298
0.088,-0.297,1.020,-14.038,-2.014,-55.786
0.098,-0.282,1.069,-2.258,-8.789,-40.405
0.091,-0.240,1.095,7.324,-11.597,-24.414
0.090,-0.190,1.075,15.625,-11.169,-10.437
0.057,-0.119,1.069,20.935,-10.193,0.549
0.030,-0.032,1.048,22.705,-8.301,9.338
0.008,-0.005,1.013,26.855,-7.385,14.221
-0.008,-0.039,1.007,30.151,-7.385,16.602
-0.002,-0.064,0.994,35.461,-8.240,21.362
-0.011,-0.077,1.030,36.987,-10.742,27.893
-0.022,-0.146,1.045,36.865,-11.841,33.386
-0.048,-0.224,1.050,38.818,-12.024,41.809
-0.099,-0.373,1.057,36.987,-10.620,54.138
-0.137,-0.520,1.070,33.691,-8.728,74.158
-0.223,-0.731,1.075,44.128,-12.207,101.685
-0.430,-1.232,0.994,68.054,-18.616,132.141
-0.520,-1.457,0.989,110.352,-36.133,179.260
-0.490,-1.027,0.976,193.176,-80.933,244.324
-0.395,-0.403,1.255,255.005,-135.254,286.438
-0.338,-0.483,1.438,241.638,-161.865,288.391
-0.215,-0.198,1.224,213.623,-148.865,301.270
-0.307,-0.044,1.250,165.771,-144.592,325.806
-0.327,-0.221,1.283,98.511,-116.333,325.989
-0.293,-0.080,1.275,36.621,-73.547,343.750
-0.200,0.278,1.107,13.855,-39.124,363.953
-0.163,0.376,0.939,13.916,-21.912,350.281
-0.203,0.351,0.854,11.047,-22.461,316.101
-0.194,0.398,0.806,5.859,-35.706,279.358
-0.206,0.377,0.854,0.732,-56.580,241.638
-0.285,0.309,0.991,-6.165,-72.937,206.238
-0.331,0.222,1.159,-8.545,-76.111,176.147
-0.371,0.070,1.217,-10.559,-63.782,152.222
-0.303,0.018,1.209,-12.878,-44.800,138.794
-0.193,0.003,1.110,-10.498,-27.588,130.737
-0.134,-0.028,1.022,-11.475,-17.273,123.169
-0.099,-0.025,0.976,-17.334,-14.587,115.295
-0.095,-0.026,1.019,-17.090,-19.897,104.919
-0.143,0.018,0.984,-12.024,-21.790,95.459
-0.173,0.102,0.984,-2.502,-22.034,84.839
-0.187,0.118,1.043,2.563,-24.353,71.045
-0.227,0.053,1.072,0.488,-20.386,51.758
-0.260,-0.035,1.067,0.183,-12.817,36.621
-0.238,-0.093,1.046,-1.953,-4.761,27.344
-0.188,-0.104,1.001,-2.686,0.732,21.301
-0.143,-0.176,1.000,-2.258,2.930,14.038
-0.100,-0.234,0.993,-4.333,4.028,7.507
-0.089,-0.259,0.991,-4.761,4.333,6.531
-0.090,-0.265,1.034,-4.639,2.319,6.531
-0.083,-0.236,1.025,-5.432,3.235,7.996
-0.088,-0.179,1.000,-6.592,4.578,8.240
-0.100,-0.142,0.999,-5.981,3.540,6.348
-0.101,-0.123,1.005,-4.639,2.258,1.892
-0.090,-0.095,1.001,-3.113,2.502,-3.357
-0.100,-0.209,0.971,-1.038,2.686,-8.850
-0.069,-0.282,0.945,-0.977,2.441,-10.986
-0.046,-0.280,0.969,-0.427,-0.122,-8.118
-0.056,-0.273,1.000,0.977,-2.869,-5.249
-0.064,-0.292,1.007,2.319,-3.662,-2.441
-0.077,-0.307,1.003,2.869,-3.845,0.793
-0.087,-0.313,1.005,2.808,-4.211,4.395
-0.092,-0.273,1.034,1.709,-4.944,7.629
-0.098,-0.250,1.035,0.977,-4.578,10.132
-0.102,-0.189,1.028,0.244,-3.662,11.414
-0.110,-0.165,1.032,0.854,-3.296,10.010
-0.119,-0.158,1.018,1.099,-2.319,6.348
-0.124,-0.163,1.007,1.038,-1.831,2.319
-0.118,-0.180,1.001,2.014,-2.136,-1.404
-0.107,-0.225,0.979,2.380,-2.014,-4.028
-0.100,-0.273,1.021,1.099,-3.296,-4.700
-0.100,-0.269,1.035,-0.061,-3.418,-3.052
-0.090,-0.264,1.005,0.305,-1.343,-0.671
-0.073,-0.253,1.000,0.488,-1.099,1.404
-0.069,-0.237,0.993,0.671,-2.197,3.540
-0.079,-0.259,0.982,0.793,-2.869,4.822
-0.079,-0.251,1.005,0.610,-4.150,6.775
-0.077,-0.220,1.016,0.977,-4.517,8.240
-0.090,-0.187,1.037,1.343,-5.188,7.935
-0.111,-0.184,1.038,2.441,-4.883,5.859
-0.116,-0.212,1.037,2.502,-3.845,2.930
-0.116,-0.213,1.037,1.343,-2.197,0.977
-0.106,-0.228,1.014,1.465,-0.366,-0.366
-0.090,-0.268,0.991,1.099,1.221,-0.488
-0.074,-0.309,1.000,0.183,0.427,0.671
-0.076,-0.285,1.000,-0.305,-0.549,4.272
-0.084,-0.229,1.002,0.549,-1.099,7.996
-0.097,-0.206,0.994,0.488,-1.465,8.789
-0.119,-0.198,0.996,0.366,-2.258,7.629
-0.130,-0.178,1.007,0.854,-2.869,5.737
-0.134,-0.151,1.024,1.465,-2.258,3.052
-0.133,-0.175,1.003,2.136,-0.427,-1.038
-0.117,-0.231,0.985,2.136,1.282,-4.211
-0.092,-0.265,0.984,1.343,1.160,-5.188
-0.076,-0.270,0.994,1.221,0.061,-3.357
-0.077,-0.256,1.000,0.977,-0.549,-0.916
-0.087,-0.258,1.015,0.610,-1.221,0.549
-0.098,-0.245,1.013,0.549,-1.160,1.770
-0.094,-0.233,1.030,1.160,-0.977,2.441
-0.097,-0.236,1.005,1.221,0.122,2.319
-0.092,-0.245,1.000,0.305,-0.061,1.587
-0.087,-0.223,1.006,0.488,-1.160,2.197
-0.085,-0.202,1.006,1.221,-1.831,2.319
-0.091,-0.215,1.001,1.770,-1.892,1.648
-0.101,-0.218,1.016,2.197,-2.319,0.793
-0.111,-0.212,1.017,3.113,-2.380,0.061
-0.107,-0.239,1.015,3.235,-1.404,-1.404
-0.102,-0.229,1.018,2.441,-0.610,-1.831
-0.099,-0.231,1.005,2.502,-0.488,-2.319
-0.097,-0.253,1.003,2.075,-0.732,-2.686
-0.096,-0.251,1.019,1.953,-0.916,-1.953

-0.462,0.945,1.326,-14.282,21.667,-196.411
-0.604,0.795,1.359,-13.733,42.664,-245.850
-0.589,0.623,1.508,6.836,66.528,-285.706
-0.686,0.123,1.519,24.719,100.281,-317.200
-0.624,-0.196,1.312,0.000,147.705,-313.416
-0.491,-0.352,1.171,-28.320,176.575,-294.800
-0.404,-0.482,1.063,-54.871,189.941,-280.762
-0.358,-0.564,0.922,-93.384,196.472,-266.113
-0.358,-0.680,0.735,-140.686,195.496,-251.160
-0.342,-0.810,0.588,-169.067,180.359,-240.845
-0.272,-0.824,0.560,-150.818,141.541,-219.360
-0.134,-0.765,0.623,-108.704,90.515,-189.880
-0.025,-0.751,0.798,-65.491,44.006,-164.856
0.037,-0.787,0.959,-35.583,12.268,-143.494
0.062,-0.823,1.015,-15.991,0.488,-118.652
0.086,-0.862,1.057,-4.578,-1.526,-91.431
0.106,-0.863,1.053,1.465,-0.183,-63.904
0.094,-0.926,1.010,2.014,2.625,-39.917
0.086,-0.992,0.974,5.127,0.793,-15.381
0.063,-1.001,0.982,14.954,-7.324,15.015
0.039,-0.960,0.954,23.254,-15.259,47.974
0.031,-0.803,0.923,32.959,-22.766,80.627
0.040,-0.569,0.895,54.382,-33.081,107.239
0.076,-0.363,0.921,77.698,-45.715,123.291
0.095,-0.235,0.952,82.153,-53.284,128.113
0.097,-0.200,1.021,66.040,-54.138,123.840
0.078,-0.270,0.963,47.302,-47.546,117.065
0.055,-0.263,0.905,34.180,-41.748,115.295
0.030,-0.250,0.908,27.710,-43.457,114.685
0.025,-0.231,0.946,30.090,-47.607,114.380
0.004,-0.170,0.985,35.461,-51.331,116.150
-0.043,-0.048,0.941,38.452,-53.650,112.183
-0.092,-0.190,0.991,47.852,-60.669,96.924
-0.105,-0.089,0.992,51.941,-61.768,97.839
-0.111,-0.039,0.999,59.204,-63.171,100.708
-0.142,0.059,1.001,65.247,-65.063,99.670
-0.177,0.122,0.971,70.679,-66.345,95.764
-0.217,0.144,0.970,78.064,-70.251,88.135
-0.272,-0.007,1.068,100.525,-79.895,79.529
-0.325,0.021,1.211,102.112,-85.144,81.726
-0.342,0.025,1.283,107.300,-79.285,86.060
-0.342,0.028,1.243,114.319,-66.223,88.562
-0.326,0.020,1.155,115.479,-53.284,87.463
-0.267,0.005,1.138,106.384,-45.410,80.322
-0.230,-0.020,1.149,78.552,-36.865,71.472
-0.216,-0.091,1.173,47.058,-26.550,58.960
-0.201,-0.100,1.165,23.804,-14.832,46.631
-0.185,-0.092,1.105,7.385,-2.625,35.339
-0.178,-0.051,1.058,-3.662,6.531,25.024
-0.173,-0.049,1.017,-9.399,12.085,12.024
-0.160,-0.091,0.977,-15.808,14.893,-2.136
-0.161,-0.101,0.972,-21.606,12.512,-12.390
-0.170,-0.159,1.003,-25.330,8.911,-22.156
-0.177,-0.296,1.057,-30.212,7.019,-31.860
-0.162,-0.355,1.067,-34.302,8.057,-33.691
-0.134,-0.344,1.078,-31.433,9.644,-30.762
-0.123,-0.343,1.113,-26.123,12.390,-31.555
-0.094,-0.388,1.072,-23.254,19.409,-33.447
-0.093,-0.381,1.000,-21.973,23.987,-28.564
-0.081,-0.357,0.962,-17.822,23.621,-23.987
-0.055,-0.324,0.952,-9.705,19.409,-20.569
-0.046,-0.310,0.945,-6.226,15.991,-18.066
-0.035,-0.322,0.930,-5.310,12.817,-17.700
-0.024,-0.342,0.909,-2.380,8.972,-16.846
-0.033,-0.349,0.915,-0.732,4.211,-14.771
-0.030,-0.358,0.939,0.610,-0.793,-12.634
-0.033,-0.363,0.941,-0.671,-3.479,-10.193
-0.031,-0.376,0.990,-2.258,-4.761,-7.812
-0.053,-0.392,1.035,-0.366,-5.798,-5.859
-0.072,-0.415,1.024,-1.770,-3.052,-2.869
-0.069,-0.414,0.999,-2.014,-0.122,1.709
-0.062,-0.370,0.972,2.014,0.122,7.690
-0.050,-0.335,0.954,5.676,-1.770,11.780
-0.045,-0.317,0.962,5.737,-4.456,13.733
-0.052,-0.284,0.955,2.197,-6.653,15.442
-0.050,-0.282,0.997,0.488,-9.521,15.686
-0.072,-0.285,1.021,2.014,-10.498,14.526
-0.088,-0.298,1.026,-0.183,-7.935,14.343
-0.087,-0.310,1.026,-2.014,-5.005,15.747
-0.086,-0.279,1.006,-2.441,-2.869,17.883
-0.078,-0.256,0.979,-1.648,-2.014,18.311
-0.079,-0.263,0.963,-2.075,-2.808,16.235
-0.082,-0.249,0.972,-1.587,-4.333,14.771
-0.084,-0.228,0.986,-0.061,-5.676,13.672
-0.096,-0.252,1.008,-0.366,-6.348,11.597
-0.102,-0.246,1.016,-1.099,-5.676,10.498
-0.109,-0.259,0.998,-0.122,-4.272,9.705
-0.121,-0.308,1.001,-0.610,-4.089,7.568
-0.112,-0.310,1.019,-1.343,-4.517,7.874
-0.107,-0.294,1.042,-0.854,-4.272,9.766
-0.109,-0.280,1.030,0.305,-2.930,11.108
-0.103,-0.249,0.997,1.099,-0.610,12.207
-0.088,-0.232,0.966,2.258,-0.061,11.169
-0.080,-0.233,0.957,1.465,-1.587,8.972
-0.080,-0.253,0.964,0.488,-3.296,6.958
-0.086,-0.266,0.981,0.488,-4.333,5.920
-0.097,-0.282,0.990,1.648,-4.639,5.127
-0.110,-0.294,1.003,1.831,-4.944,5.249
-0.105,-0.293,1.011,1.099,-4.883,5.859
-0.106,-0.284,1.003,1.404,-4.395,6.775
-0.122,-0.318,1.018,0.977,-4.272,6.653
-0.121,-0.341,1.023,-0.427,-4.089,6.714
-0.104,-0.327,1.026,-0.916,-3.479,8.667
-0.091,-0.297,0.998,0.549,-2.625,11.414
-0.095,-0.286,0.976,1.343,-2.014,12.207
-0.095,-0.270,0.973,2.502,-3.418,11.902
-0.083,-0.264,0.981,3.357,-5.371,11.230
-0.104,-0.264,1.008,2.258,-6.714,10.071
-0.117,-0.275,1.012,1.953,-6.409,9.033
-0.115,-0.256,1.007,2.258,-5.554,8.850
-0.119,-0.257,1.011,2.197,-5.188,8.301
-0.128,-0.282,1.017,1.648,-4.639,6.958
-0.119,-0.279,1.018,1.465,-3.906,6.714
-0.117,-0.290,1.006,1.770,-2.747,7.141
-0.115,-0.296,0.985,1.953,-1.709,7.568
-0.111,-0.295,0.978,1.343,-2.136,7.935
-0.117,-0.299,0.980,1.526,-3.540,7.812
-0.105,-0.295,0.995,3.235,-4.517,7.751
-0.105,-0.265,1.004,4.395,-5.432,8.423

-0.548,1.164,1.195,-79.163,41.992,-215.393
-0.734,0.880,1.239,-72.876,55.786,-265.869
-0.838,0.498,1.217,-69.702,77.881,-299.683
-0.769,0.100,1.217,-57.861,98.755,-317.505
-0.702,-0.339,1.151,-40.771,117.065,-320.068
-0.512,-0.678,1.080,-42.542,133.850,-303.589
-0.319,-0.852,1.038,-55.908,144.897,-277.710
-0.162,-0.941,0.986,-77.087,150.452,-252.869
-0.061,-1.069,0.875,-104.797,149.658,-229.004
0.013,-1.124,0.697,-112.854,137.390,-200.989
0.093,-1.058,0.644,-96.924,107.544,-167.480
0.662,-1.517,1.536,-57.495,70.618,-138.733
0.147,-1.358,0.942,62.805,67.139,-108.826
0.181,-1.001,0.411,56.702,89.661,-49.377
0.167,-0.727,0.713,35.522,37.720,-10.010
0.139,-0.833,0.877,25.452,0.427,-3.540
0.047,-0.869,0.769,0.793,-5.676,7.751
0.004,-0.787,0.878,-11.658,-19.348,32.410
-0.023,-0.736,1.035,-14.282,-35.156,54.504
-0.020,-0.756,1.165,-9.460,-41.199,72.449
-0.012,-0.686,1.206,7.080,-40.283,93.994
0.063,-0.338,1.214,25.635,-37.109,117.310
0.105,-0.042,1.210,34.912,-34.363,129.211
0.101,0.074,1.004,35.645,-24.719,123.108
0.096,0.199,0.837,24.292,-19.592,111.755
0.076,0.276,0.835,10.803,-26.550,97.107
0.044,0.310,0.919,0.977,-34.180,80.261
0.014,0.332,0.980,-2.319,-36.133,65.552
-0.022,0.289,1.012,-1.770,-35.400,48.767
-0.053,0.172,1.053,0.305,-33.325,31.433
-0.061,0.177,1.073,1.526,-28.320,23.865
-0.075,0.172,1.098,1.465,-22.888,18.372
-0.094,0.134,1.122,0.122,-16.785,11.414
-0.098,0.091,1.119,-0.916,-9.216,6.287
-0.085,0.055,1.079,1.648,-3.418,2.258
-0.044,0.041,1.043,6.165,-0.305,-0.366
-0.011,0.016,1.028,9.766,0.061,-2.991
0.012,0.010,1.006,10.071,-0.610,-4.883
0.022,-0.020,1.001,7.935,-2.319,-7.080
0.006,-0.084,1.001,4.883,-4.333,-9.949
-0.005,-0.101,1.001,3.296,-6.165,-10.071
-0.015,-0.087,1.030,2.747,-8.667,-9.888
-0.025,-0.065,1.062,3.845,-10.254,-10.315
