aX,aY,aZ,gX,gY,gZ
-0.230,-0.214,2.592,85.510,-177.551,16.357
-0.215,-0.102,2.712,65.247,-126.587,15.930
-0.226,-0.011,2.587,55.969,-72.571,11.108
-0.196,-0.055,2.314,41.504,-19.714,2.136
-0.231,-0.059,1.923,32.166,22.461,-4.578
-0.261,-0.037,1.572,20.081,50.171,-4.761
-0.252,-0.092,1.301,5.737,62.256,-5.737
-0.235,-0.132,1.035,-2.686,61.890,-6.042
-0.204,-0.151,0.904,-12.207,49.866,-4.150
-0.184,-0.144,0.866,-18.127,30.884,-1.831
-0.188,-0.101,0.910,-24.780,12.329,-0.122
-0.193,-0.065,1.013,-30.090,-3.723,0.427
-0.169,-0.080,1.135,-31.433,-13.733,-0.854
-0.156,-0.069,1.253,-33.630,-17.273,-0.916
-0.154,-0.065,1.371,-34.119,-14.526,-1.160
-0.149,-0.052,1.401,-31.555,-6.775,-1.648
-0.121,-0.068,1.370,-32.532,3.601,-2.197
-0.093,-0.083,1.323,-33.997,14.160,-3.174
-0.070,-0.112,1.203,-30.334,24.048,-4.883
-0.054,-0.086,1.053,-23.315,30.457,-5.920
-0.046,-0.127,0.962,-17.334,33.020,-8.118
-0.038,-0.133,0.880,-12.146,33.325,-8.850
-0.042,-0.107,0.787,-7.935,31.128,-6.714
-0.043,-0.104,0.741,-6.042,24.902,-5.615
-0.045,-0.098,0.746,-7.019,15.808,-4.089
-0.043,-0.092,0.780,-9.155,6.042,-2.258
-0.039,-0.089,0.850,-14.709,-3.113,-0.610
-0.034,-0.095,0.939,-17.761,-9.216,0.244
-0.034,-0.096,1.031,-15.808,-11.414,1.038
-0.050,-0.067,1.080,-10.681,-9.766,2.319
-0.055,-0.072,1.068,-6.348,-5.859,2.747
-0.073,-0.046,1.066,-4.456,-2.869,3.662
-0.076,-0.046,0.999,-3.601,0.427,3.906
-0.075,-0.053,0.972,-4.700,2.075,3.601
-0.074,-0.050,0.957,-6.836,2.197,4.150
-0.079,-0.029,0.928,-5.188,2.197,4.578
-0.092,-0.034,0.906,-0.610,0.671,3.418
-0.090,-0.030,0.914,3.174,-2.136,2.869
-0.083,-0.045,0.941,9.033,-4.211,1.831
-0.093,-0.035,0.965,13.550,-5.432,1.343
-0.102,-0.035,0.979,11.719,-6.409,1.282
-0.099,-0.042,1.020,4.211,-8.057,1.221
-0.098,-0.042,1.058,-1.587,-8.850,1.038
-0.095,-0.062,1.073,-4.578,-7.629,0.549
-0.088,-0.059,1.095,-4.578,-6.165,0.977
-0.089,-0.056,1.059,-1.465,-3.418,1.526
-0.094,-0.047,1.012,0.854,-1.221,1.770
-0.094,-0.038,0.995,2.441,-1.221,1.587
-0.092,-0.061,0.985,2.686,-2.441,1.038
-0.095,-0.054,0.996,-1.038,-3.784,1.526
-0.096,-0.055,1.032,-6.287,-5.737,2.502
-0.098,-0.045,1.048,-7.874,-7.019,2.808
-0.100,-0.026,1.067,-5.920,-7.263,3.113
-0.108,-0.019,1.069,-2.075,-6.592,1.953
-0.103,-0.029,1.076,1.831,-5.371,0.854
-0.102,-0.019,1.075,4.639,-4.272,0.366
-0.105,-0.022,1.067,6.409,-3.174,-0.183
-0.104,-0.013,1.043,4.761,-2.380,-0.244
-0.102,-0.016,1.042,1.282,-2.136,-0.549
-0.110,-0.016,1.053,-0.061,-2.686,-1.587
-0.098,-0.027,1.039,1.038,-2.319,-2.014
-0.096,-0.037,1.042,1.831,-2.319,-2.441
-0.095,-0.038,1.055,1.282,-2.808,-2.075
-0.089,-0.033,1.079,-0.305,-2.930,-1.709
-0.084,-0.041,1.090,0.183,-2.502,-2.197
-0.083,-0.041,1.082,0.977,-1.160,-2.625
-0.086,-0.036,1.087,2.075,-0.061,-2.747
-0.083,-0.041,1.065,3.113,1.526,-2.991
-0.083,-0.032,1.047,3.845,2.625,-2.991
-0.080,-0.043,1.024,5.066,2.869,-3.479
-0.074,-0.053,1.006,6.226,2.686,-3.601
-0.078,-0.040,1.000,5.615,1.465,-2.991
-0.080,-0.047,0.994,3.967,0.122,-2.747
-0.072,-0.062,1.001,1.587,-1.404,-2.502
-0.073,-0.061,1.031,-0.916,-2.563,-1.526
-0.077,-0.058,1.047,-1.648,-2.869,-0.732
-0.082,-0.059,1.071,-1.709,-2.197,-0.305
-0.087,-0.051,1.094,0.244,-1.526,0.000
-0.078,-0.052,1.080,1.648,0.488,0.427
-0.086,-0.037,1.078,2.319,1.953,0.366
-0.083,-0.036,1.037,2.441,3.174,0.061
-0.087,-0.060,1.013,1.099,3.845,-0.671
-0.084,-0.023,0.993,1.953,3.540,-1.221
-0.087,-0.052,0.958,3.601,3.357,0.061
-0.093,-0.043,0.979,3.906,1.099,0.061
-0.091,-0.037,0.990,5.066,-0.916,0.549
-0.090,-0.043,0.993,5.066,-1.892,0.488
-0.087,-0.041,1.012,3.662,-3.113,0.610
-0.084,-0.050,1.040,1.343,-3.479,0.244
-0.078,-0.051,1.034,0.610,-2.563,0.061
-0.080,-0.051,1.035,0.793,-1.831,-0.061
-0.087,-0.052,1.028,1.099,-1.038,-0.549
-0.091,-0.049,1.030,1.465,-0.977,-0.610
-0.093,-0.050,1.021,1.831,-1.099,-0.610
-0.096,-0.045,1.015,1.587,-1.709,-0.916
-0.097,-0.047,1.015,0.244,-2.380,-0.549
-0.094,-0.038,1.022,-1.099,-2.747,0.000
-0.096,-0.032,1.011,0.854,-2.747,0.122
-0.098,-0.037,1.008,1.953,-2.747,-0.427
-0.097,-0.032,1.022,1.099,-3.418,-0.549
-0.096,-0.037,1.024,0.793,-3.784,-0.610
-0.094,-0.045,1.035,0.488,-3.967,-0.793
-0.098,-0.026,1.057,-0.122,-3.967,-0.366
-0.094,-0.044,1.053,1.465,-2.991,-0.854
-0.094,-0.038,1.056,2.686,-1.831,-0.610
-0.091,-0.038,1.040,3.357,-1.038,-0.427
-0.087,-0.053,1.030,3.967,-0.427,-1.160
-0.084,-0.048,1.028,4.395,-0.671,-1.099
-0.083,-0.051,1.003,5.249,-0.671,-1.160
-0.095,-0.052,1.014,4.944,-1.709,-1.526
-0.099,-0.038,1.014,3.357,-3.235,-1.160
-0.091,-0.051,1.025,0.183,-4.150,-1.160
-0.086,-0.054,1.056,-1.892,-5.127,-1.221
-0.097,-0.044,1.084,-2.808,-5.066,-0.488
-0.097,-0.031,1.082,-2.930,-4.211,0.061
-0.099,-0.025,1.088,-3.845,-3.113,0.061
-0.098,-0.033,1.071,-3.540,-1.648,-1.038
-0.097,-0.030,1.067,-1.221,-0.610,-1.831
-0.101,-0.035,1.026,1.526,0.732,-2.502

-0.201,0.032,2.253,-7.874,-68.115,17.822
-0.187,0.072,1.971,-11.292,-24.414,13.977
-0.152,-0.013,1.728,-6.775,8.972,6.165
-0.167,-0.004,1.416,2.075,35.034,1.526
-0.191,-0.005,1.094,14.771,51.880,-2.686
-0.197,-0.041,0.842,25.146,55.298,-6.836
-0.195,-0.073,0.719,27.344,46.265,-6.958
-0.201,-0.074,0.655,22.461,29.541,-4.028
-0.208,-0.055,0.688,11.841,8.057,0.549
-0.205,-0.038,0.818,1.709,-12.695,4.150
-0.195,-0.022,1.006,-6.531,-28.625,4.944
-0.202,-0.034,1.138,-13.062,-38.025,4.150
-0.185,-0.017,1.254,-21.729,-40.833,4.272
-0.170,-0.010,1.413,-29.297,-39.063,3.174
-0.158,-0.019,1.453,-27.527,-28.381,0.122
-0.138,-0.054,1.432,-20.081,-12.634,-2.686
-0.134,-0.035,1.364,-12.573,2.991,-3.540
-0.135,-0.056,1.231,-5.493,17.639,-5.005
-0.136,-0.080,1.094,-0.610,26.123,-5.432
-0.134,-0.062,1.000,3.296,27.710,-4.395
-0.141,-0.068,0.908,4.700,25.146,-4.700
-0.135,-0.066,0.868,4.822,18.799,-4.211
-0.130,-0.058,0.842,3.113,10.925,-3.601
-0.131,-0.055,0.876,1.587,2.747,-3.052
-0.121,-0.066,0.927,0.122,-3.784,-2.380
-0.123,-0.054,0.989,-1.160,-7.141,-1.282
-0.132,-0.041,1.022,-0.305,-8.606,-0.610
-0.134,-0.036,1.060,-0.366,-7.629,-0.610
-0.124,-0.051,1.103,-1.770,-6.165,-0.854
-0.125,-0.040,1.123,-2.197,-3.662,-0.427
-0.134,-0.039,1.096,-1.526,0.732,-0.427
-0.141,-0.031,1.052,-1.465,4.761,-0.671
-0.135,-0.044,1.002,-3.235,6.775,-1.404
-0.136,-0.053,0.953,-3.723,6.592,-1.404
-0.130,-0.053,0.920,-3.174,4.761,-0.732
-0.131,-0.052,0.907,-1.709,2.258,-0.366
-0.148,-0.037,0.924,0.488,-0.732,0.305
-0.158,-0.027,0.952,1.831,-3.479,0.732
-0.158,-0.029,1.002,1.831,-5.798,0.549
-0.148,-0.040,1.050,-0.732,-7.202,0.427
-0.148,-0.040,1.089,-3.479,-7.263,0.183
-0.152,-0.033,1.107,-5.798,-5.493,0.122
-0.144,-0.036,1.092,-5.493,-3.418,-0.366
-0.142,-0.046,1.088,-5.310,-1.587,-1.282
-0.154,-0.033,1.072,-5.188,0.671,-1.221
-0.149,-0.030,1.033,-2.991,2.563,-0.916
-0.143,-0.029,0.987,0.549,3.784,-1.160
-0.141,-0.039,0.978,2.930,3.052,-2.136
-0.143,-0.042,0.975,2.930,1.587,-2.136
-0.142,-0.043,0.977,3.662,-0.061,-1.465
-0.145,-0.045,0.989,5.371,-2.380,-1.465
-0.148,-0.032,1.000,3.479,-3.967,-1.038
-0.153,-0.027,1.058,-1.587,-5.676,-0.305
-0.149,-0.026,1.076,-3.418,-5.371,-0.732
-0.140,-0.046,1.098,-3.540,-3.784,-1.160
-0.136,-0.041,1.087,-1.648,-1.099,-1.099
-0.140,-0.039,1.056,1.465,1.709,-0.916
-0.143,-0.042,1.021,3.052,3.113,-1.160
-0.141,-0.045,0.996,1.343,2.502,-1.038
-0.146,-0.029,0.973,-2.808,0.610,-0.244
-0.143,-0.042,0.995,-7.812,-2.319,-0.549
-0.142,-0.037,1.011,-8.667,-3.845,-0.122
-0.142,-0.036,1.005,-6.897,-4.150,0.427
-0.143,-0.042,1.047,-6.470,-4.761,0.671
-0.143,-0.020,1.063,-5.188,-4.761,1.648
-0.145,-0.018,1.065,-0.061,-3.662,0.427
-0.143,-0.018,1.045,2.625,-2.380,-0.244
-0.143,-0.015,1.085,1.709,-2.258,-0.854
-0.134,-0.029,1.036,1.160,-0.183,-1.221
-0.150,-0.010,1.041,-0.854,0.366,-1.587
-0.134,-0.052,1.001,-2.380,0.427,-2.197
-0.126,-0.034,0.980,-2.930,0.305,-0.671
-0.140,-0.036,0.976,-0.183,-1.038,-0.366
-0.142,-0.029,0.974,3.967,-2.747,-0.366
-0.148,-0.014,0.953,5.127,-2.869,0.854
-0.162,-0.027,1.016,3.906,-5.249,0.000
-0.158,-0.019,1.034,1.038,-6.287,0.000
-0.154,-0.024,1.073,-3.479,-5.554,0.122
-0.152,-0.027,1.082,-3.845,-4.333,0.000
-0.147,-0.029,1.084,-3.662,-2.075,-0.427
-0.145,-0.030,1.071,-1.953,-0.305,-0.671
-0.150,-0.025,1.047,1.404,1.221,-0.916
-0.151,-0.024,0.999,4.089,2.136,-1.099
-0.144,-0.023,1.000,4.761,1.099,-1.343
-0.156,-0.033,1.010,5.859,-0.488,-1.587
-0.146,-0.024,1.001,9.094,-0.854,-1.160
-0.151,-0.021,0.983,11.353,-1.404,-1.526
-0.155,-0.028,0.999,9.094,-2.930,-1.953
-0.156,-0.036,1.025,4.639,-3.723,-1.709
-0.156,-0.025,1.052,1.953,-3.723,-0.549
-0.152,-0.021,1.084,0.916,-3.540,-0.427
-0.158,-0.003,1.098,0.671,-2.441,-0.793
-0.153,-0.017,1.100,0.305,-1.099,-1.770
-0.154,-0.002,1.081,1.099,0.366,-2.686
-0.148,-0.018,1.026,3.052,2.502,-3.357
-0.147,-0.017,0.987,3.113,3.052,-3.784
-0.147,-0.033,0.990,1.343,1.831,-3.662
-0.144,-0.027,0.977,2.075,0.427,-3.052
-0.143,-0.031,0.978,1.465,-1.465,-2.930
-0.139,-0.037,1.021,1.892,-3.479,-2.747
-0.133,-0.049,1.030,3.601,-3.296,-2.075
-0.139,-0.032,1.043,4.150,-2.930,-1.343
-0.145,-0.030,1.073,4.517,-2.625,-1.038
-0.139,-0.027,1.084,4.089,-1.526,-1.038
-0.132,-0.041,1.082,3.967,0.305,-1.587
-0.129,-0.047,1.059,6.287,2.380,-1.831
-0.140,-0.027,0.985,11.292,4.883,-1.038
-0.144,-0.036,0.944,12.329,4.578,-1.465
-0.143,-0.030,0.935,9.949,1.465,-1.648
-0.137,-0.041,0.964,5.859,-1.770,-1.709
-0.143,-0.037,1.005,3.906,-4.150,-1.709
-0.135,-0.039,1.008,2.686,-4.272,-0.977
-0.133,-0.043,1.025,2.014,-4.272,-0.977
-0.142,-0.032,1.036,0.244,-4.211,-0.671
-0.146,-0.017,1.045,-1.770,-3.906,-0.854
-0.144,-0.027,1.070,-3.662,-3.723,-1.953
-0.151,-0.022,1.060,-5.005,-2.380,-2.258
-0.149,-0.033,1.057,-4.822,-0.610,-2.625
-0.145,-0.041,1.018,-0.916,0.732,-3.357

-0.209,0.221,2.343,21.118,-117.310,43.213
-0.214,0.280,2.198,30.884,-67.505,30.396
-0.231,0.205,2.008,30.090,-20.813,15.686
-0.225,0.126,1.717,32.043,17.700,5.005
-0.243,0.104,1.398,40.100,45.044,0.122
-0.264,0.096,1.110,46.143,58.167,-4.700
-0.249,0.007,0.910,44.861,57.068,-8.972
-0.230,-0.035,0.748,36.682,46.509,-7.996
-0.208,-0.041,0.710,24.841,27.832,-4.639
-0.210,-0.030,0.733,10.315,7.568,-1.465
-0.213,-0.006,0.843,-1.404,-11.169,0.610
-0.215,0.023,1.032,-9.521,-26.550,1.160
-0.196,0.018,1.174,-11.658,-34.363,0.000
-0.161,0.001,1.301,-11.597,-34.912,-2.014
-0.147,-0.011,1.407,-11.963,-29.724,-3.845
-0.138,-0.008,1.446,-8.972,-18.555,-5.127
-0.132,-0.025,1.417,-2.808,-3.967,-6.653
-0.151,-0.013,1.316,4.700,10.498,-8.240
-0.159,-0.050,1.192,7.751,22.156,-10.010
-0.137,-0.067,1.021,5.676,28.992,-9.766
-0.127,-0.082,0.937,2.991,28.381,-8.545
-0.124,-0.107,0.852,0.916,25.146,-6.653
-0.117,-0.069,0.809,-1.587,20.569,-3.052
-0.116,-0.081,0.822,-1.587,12.146,-1.587
-0.125,-0.053,0.831,-1.648,4.517,0.366
-0.126,-0.049,0.894,-2.686,-2.869,1.404
-0.135,-0.026,0.966,-2.075,-8.301,2.380
-0.136,-0.032,1.020,-3.296,-10.681,3.174
-0.137,-0.023,1.066,-4.395,-9.827,4.089
-0.141,-0.015,1.117,-3.540,-7.690,4.272
-0.150,0.005,1.097,-0.916,-3.662,4.456
-0.161,0.009,1.060,-0.916,-0.061,3.540
-0.152,-0.013,1.009,-2.258,2.686,1.648
-0.153,-0.009,0.973,-3.052,4.456,1.221
-0.152,-0.023,0.915,-1.770,5.188,1.099
-0.152,-0.028,0.907,1.160,3.357,0.916
-0.156,-0.034,0.910,3.418,0.427,0.854
-0.168,-0.018,0.938,4.395,-2.930,1.526
-0.166,-0.020,1.001,2.502,-6.714,1.587
-0.162,-0.014,1.059,-1.343,-9.094,1.709
-0.161,-0.010,1.097,-3.479,-8.850,1.282
-0.158,-0.016,1.114,-2.808,-7.324,0.488
-0.150,-0.011,1.111,-2.625,-4.639,0.061
-0.147,-0.028,1.092,-1.465,-1.770,-0.671
-0.146,-0.031,1.055,0.488,1.648,-0.732
-0.148,-0.030,1.010,1.892,4.456,0.061
-0.152,-0.030,0.989,4.700,4.761,0.732
-0.158,-0.023,0.945,5.493,3.967,1.282
-0.164,-0.021,0.961,3.052,0.366,1.587
-0.166,-0.006,0.977,-1.160,-3.479,2.380
-0.161,-0.002,1.010,-4.517,-5.615,1.831
-0.152,-0.014,1.049,-5.859,-6.653,0.610
-0.145,-0.009,1.075,-4.578,-5.188,0.061
-0.144,-0.012,1.081,-1.160,-3.662,-0.793
-0.147,-0.005,1.077,2.686,-1.404,-1.465
-0.154,-0.011,1.064,4.761,0.671,-1.770
-0.145,-0.020,1.037,4.395,2.319,-1.892
-0.149,-0.024,1.028,3.418,2.319,-1.648
-0.153,-0.013,1.011,3.357,2.258,-1.160
-0.149,-0.016,0.992,2.380,1.465,-1.221
-0.143,-0.021,0.999,0.793,-0.061,-1.282
-0.141,-0.031,0.992,1.282,-0.488,-1.282
-0.149,-0.014,0.992,2.502,-0.977,-0.549
-0.151,-0.009,1.009,4.272,-2.136,-0.122
-0.145,-0.020,1.017,4.822,-2.625,-0.305
-0.139,-0.023,1.038,3.845,-3.174,-0.671
-0.139,-0.027,1.056,2.563,-3.235,-0.916
-0.135,-0.030,1.048,3.052,-1.831,-0.793
-0.139,-0.031,1.049,3.540,-0.671,-0.549
-0.144,-0.023,1.054,3.662,0.061,0.061
-0.153,-0.008,1.032,4.822,1.099,0.061
-0.147,-0.033,1.003,4.944,1.282,-0.854
-0.144,-0.031,1.000,3.357,0.793,-0.732
-0.152,-0.024,0.999,3.113,-0.244,-0.305
-0.153,-0.025,0.991,3.540,-0.854,-0.549
-0.151,-0.026,1.007,2.869,-1.831,-0.305
-0.151,-0.023,1.034,3.235,-3.052,0.061
-0.154,-0.013,1.054,4.089,-3.357,0.366
-0.151,-0.017,1.078,3.479,-3.418,0.061
-0.148,-0.025,1.072,2.747,-2.197,-0.183
-0.159,-0.017,1.065,1.953,-1.160,-0.366
-0.163,-0.011,1.037,0.610,0.000,-0.122
-0.153,-0.034,1.033,1.160,0.122,-0.732
-0.152,-0.034,1.003,2.808,0.732,-0.549
-0.154,-0.028,0.998,4.028,0.977,-0.244
-0.156,-0.032,1.013,5.188,-0.305,-0.916
-0.154,-0.038,1.007,4.211,-1.038,-0.854
-0.153,-0.029,1.030,2.625,-2.136,-0.366
-0.151,-0.027,1.041,2.380,-2.686,-0.610
-0.158,-0.025,1.046,2.686,-2.625,-0.793
-0.157,-0.027,1.047,2.197,-2.258,-0.916
-0.153,-0.028,1.061,2.563,-1.770,-0.916
-0.153,-0.029,1.051,3.906,-0.732,-1.099
-0.154,-0.030,1.043,4.761,0.610,-1.282
-0.154,-0.026,1.029,4.395,1.038,-1.282
-0.154,-0.022,1.021,3.906,1.343,-1.404
-0.154,-0.029,1.012,3.906,1.343,-1.709
-0.146,-0.029,0.993,2.258,1.343,-1.648
-0.143,-0.032,0.990,1.648,0.305,-1.587
-0.142,-0.033,0.995,1.465,-0.427,-1.526
-0.143,-0.036,0.999,1.770,-1.221,-1.465
-0.145,-0.037,1.010,1.648,-2.014,-1.282
-0.148,-0.020,1.023,0.305,-2.686,-0.916
-0.153,-0.020,1.051,-0.244,-3.418,-0.977
-0.148,-0.024,1.055,-0.061,-3.052,-1.587
-0.145,-0.027,1.067,0.061,-2.075,-1.892
-0.141,-0.032,1.041,1.221,-0.305,-2.075
-0.138,-0.034,1.014,1.770,1.038,-2.014
-0.142,-0.044,1.005,3.174,1.160,-2.075
-0.147,-0.043,0.982,4.700,1.221,-1.709
-0.139,-0.042,0.976,5.737,-0.122,-1.038
-0.143,-0.051,1.002,6.287,-2.747,-0.732
-0.147,-0.036,1.009,5.737,-3.601,0.183
-0.154,-0.021,1.041,5.554,-4.089,0.610
-0.156,-0.021,1.058,4.333,-4.150,0.183
-0.149,-0.020,1.070,2.502,-3.601,-0.183
-0.152,-0.024,1.062,1.648,-2.319,-0.671
-0.145,-0.037,1.042,1.953,-0.549,-1.343
-0.146,-0.032,1.022,2.380,0.427,-1.587

-0.398,-0.090,2.296,-50.110,-261.292,65.002
-0.285,0.205,2.828,-87.769,-235.962,77.087
-0.216,0.330,3.018,-95.825,-176.392,61.707
-0.174,0.274,2.880,-51.270,-101.990,36.621
-0.175,0.089,2.447,-13.000,-29.419,15.869
-0.208,0.034,2.036,-5.737,28.320,9.521
-0.228,0.059,1.636,11.169,71.167,6.836
-0.300,0.057,1.154,39.612,102.234,-1.038
-0.360,0.021,0.762,54.077,111.023,-8.057
-0.345,-0.008,0.519,51.453,96.741,-10.437
-0.314,-0.045,0.426,38.147,68.542,-8.423
-0.286,-0.074,0.420,18.066,36.377,-4.456
-0.274,-0.054,0.517,-0.061,4.578,0.977
-0.263,-0.015,0.725,-13.184,-23.682,5.310
-0.255,0.019,0.964,-16.968,-43.152,5.676
-0.233,0.007,1.152,-12.817,-51.636,3.723
-0.218,0.027,1.313,-11.414,-50.171,1.953
-0.200,0.024,1.441,-12.146,-41.260,-1.160
-0.172,0.004,1.512,-11.841,-25.635,-4.211
-0.156,-0.021,1.504,-10.010,-5.310,-6.348
-0.160,-0.020,1.401,-5.188,14.832,-7.935
-0.174,-0.043,1.221,-0.793,31.067,-10.010
-0.174,-0.060,1.051,-0.671,39.429,-11.230
-0.171,-0.068,0.915,-0.916,40.161,-11.169
-0.161,-0.094,0.819,0.549,35.828,-11.414
-0.151,-0.095,0.751,1.465,28.259,-9.033
-0.149,-0.088,0.735,0.305,17.334,-6.592
-0.149,-0.084,0.749,0.122,5.676,-5.310
-0.148,-0.066,0.825,-1.892,-4.456,-3.235
-0.150,-0.047,0.963,-1.953,-12.451,-0.793
-0.147,-0.050,1.043,0.000,-14.526,0.305
-0.157,-0.031,1.107,1.038,-12.878,1.709
-0.167,-0.020,1.150,1.831,-9.644,2.319
-0.165,-0.017,1.157,3.418,-4.639,2.258
-0.166,-0.024,1.130,3.906,0.977,1.648
-0.177,-0.009,1.092,4.150,6.531,0.916
-0.190,-0.000,1.014,5.554,11.169,-0.427
-0.189,-0.023,0.942,4.944,12.634,-2.563
-0.175,-0.040,0.897,3.052,10.498,-3.540
-0.173,-0.056,0.879,3.296,6.775,-3.784
-0.172,-0.062,0.868,5.432,3.296,-3.113
-0.173,-0.053,0.885,5.554,-0.793,-1.587
-0.170,-0.054,0.925,5.432,-4.639,-0.183
-0.173,-0.048,1.000,5.005,-8.057,0.610
-0.179,-0.041,1.055,4.211,-9.460,1.343
-0.185,-0.031,1.077,2.075,-8.972,1.526
-0.183,-0.028,1.089,0.305,-7.568,0.671
-0.177,-0.048,1.094,-1.648,-5.554,-0.122
-0.170,-0.045,1.083,-2.319,-2.808,0.305
-0.173,-0.050,1.049,0.061,0.000,0.244
-0.178,-0.041,1.008,2.197,2.075,0.366
-0.180,-0.040,0.984,3.418,2.075,0.244
-0.180,-0.046,0.970,2.991,0.244,-0.305
-0.173,-0.051,0.963,1.099,-1.892,0.061
-0.170,-0.046,0.985,1.343,-3.662,0.671
-0.177,-0.041,1.002,3.113,-4.700,0.244
-0.176,-0.041,1.019,3.662,-5.188,0.549
-0.184,-0.028,1.028,4.150,-5.798,0.854
-0.197,-0.015,1.061,3.967,-6.409,0.427
-0.193,-0.019,1.082,3.479,-6.592,-0.305
-0.179,-0.026,1.095,2.441,-5.676,-0.977
-0.170,-0.033,1.107,1.282,-4.517,-1.953
-0.158,-0.052,1.091,0.488,-2.197,-2.441
-0.155,-0.052,1.063,0.671,1.465,-2.075
-0.152,-0.057,1.024,2.380,4.028,-1.770
-0.161,-0.053,0.991,3.784,5.676,-1.587
-0.170,-0.065,0.956,4.150,5.005,-1.160
-0.182,-0.031,0.943,3.113,2.502,0.549
-0.178,-0.048,0.956,3.052,-1.099,0.244
-0.174,-0.037,0.994,3.662,-3.723,0.244
-0.170,-0.048,1.014,3.540,-4.700,0.183
-0.167,-0.043,1.034,2.502,-4.761,0.732
-0.164,-0.051,1.045,1.831,-4.211,0.732
-0.167,-0.044,1.053,2.258,-3.296,0.854
-0.174,-0.045,1.035,3.174,-1.404,1.038
-0.175,-0.041,1.036,4.333,-0.366,0.916
-0.184,-0.041,1.032,4.272,-0.183,0.671
-0.183,-0.041,1.006,2.869,0.183,0.854
-0.174,-0.054,1.001,1.709,-0.183,0.244
-0.174,-0.061,0.993,1.892,-0.671,0.122
-0.177,-0.055,0.983,1.587,-1.221,0.610
-0.177,-0.053,0.980,1.892,-1.953,0.916
-0.187,-0.046,0.979,2.014,-3.174,0.977
-0.187,-0.043,0.993,1.343,-4.150,0.854
-0.189,-0.045,1.017,1.465,-5.249,0.916
-0.187,-0.043,1.035,1.648,-5.615,0.977
-0.185,-0.045,1.072,2.930,-5.432,0.854
-0.191,-0.040,1.084,3.540,-4.395,0.610
-0.192,-0.033,1.084,2.686,-2.991,0.427
-0.188,-0.040,1.083,0.977,-1.648,-0.244
-0.183,-0.048,1.061,-0.305,-0.305,-0.793
-0.186,-0.041,1.040,0.610,0.793,-1.099
-0.190,-0.051,1.012,1.587,1.404,-1.770
-0.187,-0.050,1.004,1.282,0.854,-1.953
-0.193,-0.033,1.007,0.549,-0.427,-1.892
-0.183,-0.063,1.000,1.526,-0.977,-2.869
-0.181,-0.058,1.019,-0.061,-2.991,-2.686
-0.181,-0.037,1.023,0.122,-2.869,-0.793
-0.183,-0.047,1.035,3.418,-3.052,-2.075
-0.184,-0.044,1.036,4.944,-2.625,-2.136
-0.184,-0.044,1.036,3.540,-2.563,-2.014
-0.175,-0.048,1.054,1.648,-1.953,-2.075
-0.173,-0.058,1.050,1.709,-0.732,-2.197
-0.176,-0.054,1.019,1.526,1.038,-1.648
-0.181,-0.043,1.006,0.488,0.916,-1.282
-0.185,-0.047,0.996,-0.793,0.244,-1.221
-0.179,-0.045,0.991,-1.587,-0.305,-1.099
-0.180,-0.047,0.998,-1.831,-1.282,-1.160
-0.183,-0.043,0.996,-1.648,-1.831,-0.916
-0.184,-0.033,0.995,-0.732,-2.197,-0.854
-0.188,-0.031,1.002,-1.465,-2.869,-0.977
-0.182,-0.031,1.016,-3.479,-3.296,-0.977
-0.175,-0.040,1.039,-4.883,-3.723,-1.282
-0.177,-0.033,1.032,-4.944,-3.296,-1.221
-0.174,-0.039,1.031,-4.028,-2.563,-1.831
-0.171,-0.042,1.043,-2.502,-2.136,-2.319
-0.177,-0.028,1.027,-2.014,-1.038,-1.892
-0.170,-0.011,1.005,-3.174,-0.671,-2.197
-0.169,-0.093,1.006,-4.578,-1.160,-3.723

-0.437,0.086,2.780,-48.645,-217.651,56.091
-0.314,0.265,3.234,-65.857,-155.090,59.692
-0.284,0.545,3.138,-27.100,-86.060,58.105
-0.326,0.599,2.723,17.578,-23.071,37.537
-0.353,0.439,2.134,17.517,29.236,11.353
-0.382,0.294,1.646,0.305,63.416,-6.653
-0.367,0.156,1.288,-2.991,80.566,-16.418
-0.355,0.063,0.956,6.104,86.975,-21.790
-0.349,-0.006,0.682,22.400,81.177,-24.475
-0.337,-0.060,0.549,31.555,62.073,-23.132
-0.324,-0.039,0.507,24.658,36.987,-15.808
-0.319,-0.004,0.584,12.695,11.230,-8.911
-0.317,0.041,0.811,2.197,-13.062,-5.554
-0.301,0.086,1.073,-5.493,-27.893,-3.845
-0.268,0.091,1.291,-5.005,-31.494,-4.089
-0.248,0.117,1.426,-4.883,-25.208,-5.127
-0.237,0.153,1.492,-5.615,-13.306,-6.531
-0.231,0.156,1.491,-4.761,0.732,-10.925
-0.217,0.122,1.396,-4.028,16.663,-16.724
-0.184,0.086,1.270,-3.174,29.358,-20.752
-0.167,0.032,1.138,-5.432,36.865,-23.743
-0.143,0.004,0.967,-7.446,40.527,-24.902
-0.143,-0.036,0.891,-6.653,38.574,-24.658
-0.127,-0.050,0.793,-0.977,34.851,-21.790
-0.127,-0.050,0.770,1.648,26.550,-17.151
-0.132,-0.012,0.759,3.296,18.005,-11.353
-0.137,0.002,0.796,4.761,8.728,-8.118
-0.129,0.002,0.856,4.761,0.610,-6.531
-0.124,0.032,0.955,2.197,-4.517,-4.272
-0.124,0.051,1.035,0.671,-6.470,-2.563
-0.120,0.055,1.062,2.502,-4.639,-2.563
-0.120,0.047,1.068,3.113,-1.526,-2.930
-0.117,0.034,1.075,4.883,2.014,-3.052
-0.125,0.031,1.033,7.446,5.859,-2.747
-0.147,0.040,0.980,7.690,8.301,-2.075
-0.145,0.020,0.943,8.301,7.446,-1.953
-0.141,0.006,0.911,7.751,5.554,-0.610
-0.150,0.008,0.884,5.615,2.808,1.343
-0.156,0.014,0.879,3.357,-0.610,2.747
-0.170,0.024,0.896,1.282,-4.028,4.456
-0.169,0.032,0.932,1.282,-6.470,5.249
-0.172,0.032,0.996,4.333,-9.033,5.554
-0.179,0.042,1.018,7.507,-9.094,5.859
-0.183,0.055,1.063,9.460,-8.789,5.737
-0.178,0.043,1.082,10.620,-7.690,4.883
-0.180,0.051,1.074,9.399,-5.066,4.578
-0.190,0.044,1.056,7.568,-3.296,3.540
-0.195,0.044,1.031,7.080,-0.793,2.869
-0.205,0.042,0.999,7.080,0.732,2.625
-0.205,0.045,0.974,5.127,0.854,2.441
-0.205,0.050,0.979,4.700,-0.916,2.075
-0.199,0.044,0.964,5.066,-2.380,1.648
-0.189,0.042,0.981,4.089,-3.906,1.221
-0.180,0.031,1.018,2.930,-5.127,0.854
-0.179,0.042,1.048,2.991,-5.005,0.916
-0.184,0.037,1.049,3.296,-4.578,0.793
-0.179,0.037,1.066,2.686,-4.089,0.488
-0.185,0.039,1.083,2.686,-3.601,0.366
-0.183,0.045,1.066,3.662,-1.770,0.610
-0.186,0.051,1.053,4.761,-0.610,0.183
-0.190,0.056,1.043,6.287,-0.122,-0.427
-0.183,0.043,1.017,7.568,0.366,-1.404
-0.175,0.027,1.005,6.714,-0.061,-2.014
-0.174,0.033,0.992,5.310,-0.488,-1.892
-0.176,0.030,0.995,4.639,-1.160,-1.831
-0.176,0.026,0.998,3.784,-1.953,-1.709
-0.175,0.039,1.021,3.113,-2.625,-1.160
-0.180,0.047,1.033,4.578,-2.869,-1.160
-0.175,0.044,1.040,5.615,-2.869,-1.709
-0.176,0.042,1.056,4.944,-2.930,-2.625
-0.163,0.013,1.045,3.540,-1.648,-3.296
-0.158,0.021,1.046,2.991,-0.549,-2.319
-0.157,0.010,1.030,3.784,0.549,-2.197
-0.161,0.004,1.032,4.150,1.587,-2.014
-0.159,0.018,1.004,3.296,2.136,-0.427
-0.165,0.016,1.010,4.089,0.854,0.305
-0.162,0.007,1.010,3.845,-0.793,0.000
-0.162,0.015,1.001,3.723,-1.038,1.587
-0.170,0.015,1.000,5.981,-1.831,1.831
-0.173,0.024,0.988,6.836,-2.136,1.831
-0.174,0.022,0.995,5.554,-2.930,1.587
-0.176,0.020,1.000,4.578,-3.601,1.221
-0.174,0.015,1.002,3.967,-3.601,1.099
-0.179,0.019,1.007,4.944,-3.845,1.099
-0.179,0.018,1.001,5.737,-3.601,0.977
-0.181,0.016,1.029,6.531,-3.967,0.916
-0.184,0.020,1.049,7.324,-4.211,0.854
-0.184,0.023,1.049,7.080,-3.784,0.977
-0.187,0.028,1.056,6.531,-3.662,0.854
-0.187,0.026,1.052,5.737,-2.991,0.305
-0.188,0.018,1.035,4.211,-2.075,0.183
-0.188,0.023,1.015,2.869,-1.343,0.183
-0.188,0.009,1.003,2.319,-1.526,-0.183
-0.190,0.011,0.993,1.892,-2.258,0.122
-0.191,0.015,1.001,2.075,-3.113,0.305
-0.191,0.019,1.005,3.052,-3.784,0.061
-0.190,0.016,1.011,2.563,-4.089,-0.244
-0.190,0.018,1.025,2.625,-4.272,-0.549
-0.190,0.017,1.029,3.601,-4.089,-1.038
-0.189,0.018,1.034,4.395,-3.662,-1.526
-0.187,0.010,1.029,5.310,-3.052,-1.465
-0.185,0.014,1.017,4.700,-2.075,-1.282
-0.185,0.006,1.004,4.150,-1.587,-1.343
-0.189,0.015,1.002,1.770,-1.953,-1.038
-0.187,0.003,1.009,-0.122,-3.113,-1.160
-0.180,0.005,1.006,-0.732,-3.662,-0.916
-0.181,0.000,1.005,0.061,-3.845,-0.549
-0.191,0.019,1.001,1.221,-3.784,-0.244
-0.193,0.018,1.005,2.197,-4.028,-0.366
-0.188,0.008,0.999,2.197,-4.150,-0.610
-0.191,0.018,1.013,1.892,-4.822,-0.488
-0.195,0.015,1.007,2.563,-5.249,-0.854
-0.194,0.015,1.015,2.441,-5.432,-1.099
-0.195,0.019,1.032,1.587,-6.104,-1.099
-0.192,0.016,1.031,0.732,-5.493,-1.221
-0.198,0.022,1.031,0.977,-4.883,-1.282
-0.200,0.018,1.003,1.404,-4.211,-1.648
-0.209,0.032,0.997,1.160,-4.395,-1.648
-0.218,0.029,0.976,0.732,-4.944,-2.441

0.051,-0.012,3.931,-100.586,-22.156,-2.502
-0.288,0.526,3.923,-110.474,65.918,3.052
-0.759,0.807,3.294,-67.383,165.710,-14.099
-1.017,0.764,2.262,-11.353,251.648,-44.250
-0.960,0.419,1.331,37.781,301.819,-75.134
-0.820,0.075,0.547,47.363,321.350,-88.684
-0.664,-0.092,-0.591,43.213,327.026,-82.397
-0.501,-0.013,-1.431,65.308,288.696,-61.646
-0.226,-0.206,-2.051,49.927,201.660,-44.556
0.112,-0.453,-1.909,-2.625,78.430,-25.391
0.206,-0.506,-1.353,-34.485,-35.095,3.845
0.067,-0.265,-0.624,-21.545,-119.263,33.875
-0.048,-0.084,0.168,9.277,-171.509,48.462
-0.154,0.056,1.241,25.818,-195.251,46.631
-0.250,0.243,1.826,46.265,-172.363,39.001
-0.276,0.266,2.104,55.847,-127.319,25.513
-0.191,0.125,2.155,46.387,-80.261,12.756
-0.093,0.020,2.001,27.588,-35.461,6.042
-0.089,0.022,1.739,16.785,0.732,3.174
-0.099,0.087,1.402,11.169,29.175,-2.441
-0.072,-0.036,1.115,6.592,46.265,-12.939
-0.039,-0.151,0.918,1.953,51.575,-17.395
0.000,-0.161,0.749,1.343,49.316,-10.498
0.003,-0.178,0.563,7.446,43.213,-4.700
-0.045,-0.163,0.472,17.517,28.381,0.549
-0.126,-0.056,0.502,23.254,5.310,7.874
-0.201,0.056,0.712,19.531,-21.484,12.695
-0.212,0.074,0.981,11.963,-43.579,12.024
-0.208,0.090,1.234,5.188,-54.565,11.108
-0.201,0.108,1.395,-0.183,-53.040,9.766
-0.203,0.142,1.494,-3.723,-42.786,7.324
-0.201,0.148,1.492,-5.249,-26.855,3.418
-0.181,0.135,1.402,-4.089,-9.094,-1.038
-0.165,0.096,1.308,-3.113,4.517,-6.042
-0.149,0.056,1.168,-3.357,14.465,-9.277
-0.127,0.021,1.046,-4.150,18.555,-10.803
-0.107,0.007,0.981,-4.333,16.357,-10.071
-0.084,-0.012,0.965,-4.089,11.597,-9.583
-0.068,-0.027,0.970,-0.610,6.531,-8.545
-0.060,-0.007,0.985,2.319,2.319,-6.958
-0.066,-0.030,1.054,3.052,-2.136,-6.592
-0.063,-0.003,1.059,2.014,-2.869,-5.310
-0.058,-0.005,1.110,0.732,-3.662,-4.333
-0.063,-0.010,1.131,1.282,-2.502,-4.395
-0.065,-0.001,1.110,1.221,0.916,-3.418
-0.065,0.003,1.093,1.709,3.845,-2.808
-0.072,-0.001,1.080,2.563,6.226,-3.113
-0.070,0.004,1.020,2.319,8.667,-2.441
-0.060,-0.014,1.000,2.869,8.362,-1.648
-0.060,-0.010,0.969,4.089,7.263,-0.977
-0.064,-0.011,0.943,4.028,6.104,0.305
-0.068,-0.007,0.944,3.357,3.601,1.465
-0.072,-0.005,0.969,2.258,0.549,2.502
-0.079,0.001,0.990,2.869,-1.282,2.869
-0.088,0.004,1.009,4.089,-2.319,3.052
-0.097,0.021,1.040,4.211,-2.869,3.418
-0.098,0.023,1.060,4.150,-2.380,3.479
-0.099,0.030,1.066,5.188,-0.366,2.686
-0.103,0.017,1.051,7.568,2.075,1.587
-0.099,0.006,1.020,9.766,4.517,1.038
-0.102,0.008,0.974,12.085,5.798,1.099
-0.102,0.002,0.927,12.085,5.249,0.793
-0.099,-0.011,0.917,7.507,2.808,0.488
-0.102,-0.001,0.922,4.517,-0.366,1.221
-0.108,0.002,0.932,4.578,-2.930,1.404
-0.099,-0.012,0.968,5.554,-4.944,1.099
-0.104,-0.006,1.017,4.822,-6.531,1.404
-0.108,-0.002,1.041,4.639,-6.470,1.465
-0.107,-0.003,1.075,3.967,-5.737,1.282
-0.114,0.005,1.092,2.319,-4.700,1.282
-0.105,0.000,1.077,1.099,-3.052,1.160
-0.103,0.004,1.062,0.305,-1.160,0.977
-0.107,0.001,1.019,0.854,0.977,0.427
-0.104,-0.005,0.971,0.977,1.892,0.183
-0.102,-0.003,0.953,0.671,0.488,0.427
-0.106,-0.002,0.957,0.977,-2.197,0.061
-0.104,0.002,0.972,0.610,-4.333,0.183
-0.099,0.003,1.016,-0.122,-6.287,-0.061
-0.099,0.002,1.061,-0.610,-7.324,-0.183
-0.101,0.012,1.072,-1.038,-5.859,-0.305
-0.098,0.013,1.075,-1.099,-4.456,-0.549
-0.098,0.011,1.068,-1.343,-3.601,-1.221
-0.093,0.039,1.049,-2.747,-2.319,-1.648
-0.100,-0.089,1.053,-4.028,-1.770,-2.991
-0.085,0.042,1.045,-2.014,-0.977,-1.587
-0.098,-0.011,0.996,-2.441,-0.427,-0.671
-0.085,0.007,1.000,-1.038,-1.282,-1.160
-0.082,-0.010,0.986,-0.916,-2.563,-1.221
-0.081,-0.007,0.990,-0.793,-3.723,-0.549
-0.080,-0.010,1.002,0.061,-5.005,-0.061
-0.082,-0.014,1.032,1.465,-6.104,0.122
-0.093,0.000,1.045,3.296,-6.470,0.671
-0.102,-0.001,1.041,3.540,-6.714,0.854
-0.100,-0.006,1.055,1.160,-8.118,1.221
-0.091,0.004,1.099,-1.282,-8.667,2.075
-0.081,-0.002,1.096,-0.549,-6.287,1.709
-0.090,-0.018,1.071,2.319,-3.296,1.038
-0.097,0.008,1.062,2.991,-1.770,2.075
-0.095,0.005,1.052,2.441,-0.671,2.258
-0.097,-0.006,1.014,4.028,0.549,1.709
-0.110,0.012,0.995,4.700,0.244,2.075
-0.125,0.020,0.995,4.700,-2.075,1.709
-0.124,0.012,1.010,4.883,-3.967,0.977
-0.120,0.012,1.059,4.150,-5.432,1.038
-0.111,0.004,1.096,4.211,-5.371,1.038
-0.113,0.009,1.109,4.578,-4.150,0.732
-0.121,0.016,1.102,4.456,-2.441,0.671
-0.119,0.014,1.098,3.113,-1.099,0.000
-0.120,0.012,1.094,1.648,0.000,-0.732
-0.119,0.004,1.093,1.282,1.038,-1.038
-0.115,0.002,1.104,2.075,1.892,-1.282
-0.118,0.010,1.120,2.930,3.052,-1.404
-0.122,0.021,1.131,4.456,4.761,-1.709
-0.103,-0.001,1.094,4.883,6.775,-2.014
-0.107,0.014,1.112,4.578,7.141,-2.502
-0.105,0.003,1.095,4.639,8.057,-3.296
-0.104,0.008,1.089,2.991,8.972,-3.601
-0.104,0.002,1.112,0.427,9.155,-3.540
-0.115,0.016,1.145,-2.563,10.620,-3.540

0.000,0.074,2.600,-81.543,-119.751,56.824
-0.067,0.235,2.358,-44.556,-58.777,53.528
-0.166,0.244,1.960,2.747,-9.644,34.180
-0.279,0.163,1.658,19.653,20.447,18.921
-0.314,0.217,1.312,14.282,42.236,15.625
-0.315,0.140,1.085,16.235,52.002,7.568
-0.304,0.046,0.892,31.067,50.659,-1.221
-0.292,-0.028,0.706,38.330,43.213,-3.174
-0.292,-0.039,0.695,27.832,24.963,1.526
-0.300,0.006,0.737,13.489,4.333,8.057
-0.315,0.030,0.843,3.784,-13.672,12.390
-0.314,0.081,1.026,-5.737,-27.893,15.259
-0.301,0.105,1.148,-11.536,-33.569,15.869
-0.298,0.136,1.238,-12.695,-32.349,14.587
-0.282,0.133,1.345,-14.160,-26.672,11.719
-0.280,0.220,1.391,-12.817,-16.418,9.277
-0.266,0.176,1.363,-0.183,-1.770,0.916
-0.259,0.120,1.297,5.737,10.742,-7.324
-0.245,0.107,1.185,3.845,21.179,-8.789
-0.227,0.078,1.103,0.000,25.452,-10.864
-0.210,0.027,1.033,-2.380,25.146,-12.573
-0.204,0.022,0.980,-6.897,22.400,-11.292
-0.189,0.011,0.943,-10.315,17.395,-9.155
-0.184,-0.000,0.931,-11.169,11.963,-7.996
-0.180,0.011,0.942,-10.986,6.714,-5.859
-0.163,0.010,0.971,-9.827,3.357,-4.028
-0.155,0.013,1.012,-6.775,1.770,-2.991
-0.162,0.018,1.023,-2.197,3.113,-2.258
-0.156,0.020,1.038,0.793,4.822,-1.648
-0.155,0.017,1.087,2.625,5.798,-1.221
-0.151,0.005,1.097,3.723,7.751,-0.244
-0.158,0.009,1.096,0.916,9.888,1.526
-0.169,0.035,1.112,-2.930,11.108,3.540
-0.192,0.081,1.091,-2.808,13.428,4.150
-0.209,0.093,1.073,-0.671,15.686,2.075
-0.216,0.091,1.043,0.366,17.090,-0.305
-0.206,0.069,0.983,0.000,17.944,-2.014
-0.210,0.072,0.961,-1.404,16.785,-2.808
-0.197,0.035,0.938,-1.160,14.648,-4.089
-0.191,0.022,0.915,-1.160,12.939,-3.113
-0.183,0.019,0.944,-2.563,9.521,-1.343
-0.178,0.031,0.992,-3.479,6.409,1.099
-0.181,0.060,1.009,-3.052,5.432,2.747
-0.176,0.053,1.033,-1.892,5.371,2.502
-0.173,0.061,1.057,-0.977,5.737,2.686
-0.173,0.054,1.061,-0.183,6.958,2.563
-0.172,0.079,1.088,2.502,9.216,2.502
-0.175,0.075,1.055,4.089,12.451,1.526
-0.177,0.087,1.022,3.296,15.930,0.000
-0.175,0.088,1.000,2.991,17.395,-1.831
-0.172,0.077,0.957,3.784,18.433,-4.395
-0.162,0.049,0.898,2.930,18.616,-5.676
-0.148,0.039,0.878,2.869,16.541,-6.042
-0.140,0.016,0.872,5.188,13.489,-6.104
-0.143,0.015,0.833,8.179,10.803,-5.371
-0.132,0.005,0.868,10.437,4.761,-4.211
-0.144,0.015,0.933,9.827,-2.380,-2.258
-0.135,0.037,0.932,7.141,-4.944,0.366
-0.133,0.037,0.981,3.479,-7.507,2.075
-0.130,0.033,1.027,2.319,-8.789,2.014
-0.140,0.051,1.035,0.671,-6.592,3.723
-0.145,0.063,1.039,0.000,-4.333,3.906
-0.156,0.058,1.041,1.404,-3.601,2.991
-0.158,0.064,1.004,0.244,-1.953,2.625
-0.158,0.061,1.001,-1.404,-2.441,2.075
-0.156,0.051,0.994,-2.808,-3.357,1.953
-0.152,0.058,0.997,-1.892,-3.662,2.258
-0.156,0.053,0.993,0.549,-4.089,2.136
-0.152,0.052,0.974,0.671,-4.028,2.258
-0.150,0.052,0.991,0.549,-4.700,2.441
-0.151,0.052,0.987,1.526,-4.944,2.380
-0.161,0.059,0.980,2.625,-5.554,2.625
-0.162,0.063,0.999,1.465,-6.775,2.686
-0.157,0.054,1.014,1.526,-7.874,2.319
-0.157,0.061,1.052,2.563,-8.423,2.441
-0.162,0.066,1.067,4.333,-7.446,2.258
-0.168,0.073,1.050,5.432,-5.432,1.526
-0.182,0.084,1.048,4.272,-4.517,1.038
-0.172,0.069,1.033,2.563,-3.784,0.610
-0.162,0.048,1.030,1.282,-3.418,-0.366
-0.159,0.044,1.023,3.113,-2.869,-0.793
-0.166,0.051,0.992,6.592,-1.831,-0.793
-0.173,0.051,0.976,8.667,-2.441,-1.160
-0.171,0.049,0.988,7.751,-4.150,-0.916
-0.166,0.048,0.997,6.409,-5.310,-0.061
-0.170,0.054,0.998,5.432,-6.775,0.488
-0.171,0.060,0.999,4.028,-7.935,0.610
-0.173,0.060,0.996,3.052,-8.606,0.183
-0.174,0.061,0.983,2.625,-9.094,0.183
-0.174,0.051,0.972,1.892,-9.583,-0.061
-0.177,0.052,0.962,1.892,-10.864,0.244
-0.178,0.056,0.946,2.625,-12.268,0.610
-0.178,0.040,0.935,2.747,-14.282,0.427
-0.183,0.043,0.909,1.953,-16.785,0.793
-0.180,0.023,0.893,3.113,-20.142,0.916
-0.189,-0.037,0.782,8.179,-23.926,1.831
-0.246,0.065,0.859,14.099,-31.921,7.263
-0.235,0.109,0.857,3.723,-37.048,8.850
-0.149,-0.045,0.908,4.456,-37.720,2.686
-0.252,-0.042,0.602,12.939,-36.011,2.319
-0.285,0.003,0.722,11.536,-53.223,10.193
-0.285,0.022,0.784,-2.930,-69.336,15.442
-0.290,0.110,0.838,-0.183,-71.960,18.372
-0.300,0.024,0.880,6.653,-75.867,11.475
-0.261,-0.041,0.968,9.460,-78.857,7.568
-0.319,0.005,1.088,10.864,-80.505,12.085
-0.342,0.073,1.093,16.968,-75.806,13.977
-0.372,0.053,1.147,14.343,-71.594,12.024
-0.371,0.069,1.236,11.353,-69.336,9.460
-0.377,0.092,1.283,4.028,-62.378,7.446
-0.340,0.042,1.321,-7.629,-53.772,3.601
-0.303,0.010,1.337,-10.864,-43.823,1.953
-0.285,-0.004,1.315,-6.775,-31.982,1.587
-0.306,0.015,1.246,-1.770,-19.043,1.282
-0.312,-0.013,1.172,-0.671,-8.972,0.488
-0.304,-0.042,1.094,1.221,-1.831,0.916
-0.320,-0.008,1.013,4.639,3.296,2.197
-0.329,-0.056,0.924,8.179,5.981,1.099
-0.342,-0.058,0.865,10.376,5.066,2.075

-0.291,0.339,1.996,36.743,-13.123,34.302
-0.349,0.333,1.765,28.625,12.939,18.494
-0.332,0.172,1.460,13.916,28.931,1.526
-0.335,0.137,1.172,0.671,38.391,-4.333
-0.321,0.076,1.020,-2.686,36.499,-7.324
-0.303,0.023,0.893,0.427,30.396,-9.216
-0.287,0.002,0.824,6.226,21.484,-7.141
-0.272,-0.013,0.820,12.146,7.385,-4.944
-0.276,0.002,0.869,8.179,-5.859,-0.061
-0.298,0.085,1.007,0.549,-18.250,4.944
-0.310,0.121,1.129,-2.136,-24.841,5.615
-0.298,0.126,1.223,-4.089,-24.475,3.235
-0.277,0.134,1.312,-5.432,-19.714,0.549
-0.267,0.135,1.378,-4.333,-10.742,-2.747
-0.259,0.140,1.361,-1.343,2.014,-5.676
-0.234,0.100,1.271,0.488,15.869,-9.216
-0.212,0.059,1.175,1.221,24.902,-12.207
-0.198,0.036,1.084,0.305,30.212,-13.184
-0.183,0.007,1.008,-0.549,31.921,-13.306
-0.182,-0.003,0.939,-1.526,31.006,-11.841
-0.167,-0.023,0.854,-1.587,27.710,-9.644
-0.165,-0.020,0.832,-0.366,20.996,-7.935
-0.173,-0.019,0.814,3.174,13.428,-6.287
-0.179,-0.003,0.816,3.784,6.470,-4.395
-0.186,0.012,0.858,3.357,-0.427,-2.075
-0.188,0.026,0.926,2.747,-5.310,-0.305
-0.186,0.035,0.978,1.343,-7.324,0.610
-0.181,0.027,1.020,0.610,-6.958,1.282
-0.185,0.041,1.035,-0.244,-5.005,2.258
-0.194,0.050,1.031,-0.244,-2.625,2.686
-0.195,0.034,1.010,0.549,-0.061,2.319
-0.190,0.025,0.985,0.732,1.831,2.686
-0.201,0.032,0.952,0.671,2.319,3.174
-0.208,0.030,0.921,1.099,1.648,3.235
-0.211,0.016,0.903,1.160,-0.549,3.662
-0.219,0.035,0.916,0.183,-3.296,4.761
-0.221,0.031,0.928,-0.549,-5.371,5.432
-0.219,0.027,0.948,-0.122,-7.324,5.493
-0.223,0.030,0.971,0.366,-9.033,6.104
-0.225,0.045,0.992,0.916,-9.766,6.226
-0.232,0.058,1.022,1.465,-10.132,5.859
-0.227,0.049,1.044,1.770,-9.033,5.066
-0.227,0.051,1.048,1.282,-6.958,4.822
-0.225,0.056,1.017,1.648,-4.883,4.700
-0.231,0.044,1.007,1.587,-4.150,3.601
-0.234,0.043,0.977,1.404,-3.784,3.540
-0.242,0.058,0.953,1.953,-3.906,3.784
-0.241,0.046,0.954,2.625,-5.310,2.563
-0.242,0.040,0.959,2.563,-7.202,2.136
-0.242,0.049,0.960,1.770,-8.911,2.747
-0.243,0.042,0.961,2.136,-10.620,2.747
-0.251,0.050,0.966,3.418,-12.329,2.930
-0.258,0.052,0.955,4.517,-13.916,3.723
-0.267,0.060,0.964,3.174,-16.663,4.089
-0.267,0.075,0.988,-0.793,-20.020,4.517
-0.271,0.084,0.994,-3.296,-21.545,3.662
-0.283,0.086,1.000,-5.249,-22.888,2.319
-0.279,0.086,0.981,-7.263,-24.170,1.038
-0.270,0.047,0.953,-8.423,-25.940,-0.305
-0.284,0.068,0.945,-10.132,-29.541,0.732
-0.305,0.103,0.937,-11.658,-33.020,1.404
-0.305,0.065,0.899,-11.719,-36.438,-1.282
-0.330,0.077,0.810,-12.878,-41.321,-1.282
-0.318,0.063,0.789,-15.503,-50.964,-0.854
-0.346,0.082,0.822,-14.221,-62.805,-1.221
-0.327,0.107,0.774,-12.085,-70.251,-2.014
-0.354,0.045,0.803,-16.724,-75.500,-4.150
-0.405,0.102,0.743,-16.235,-77.271,-4.456
-0.424,0.093,0.764,-17.822,-84.106,-4.639
-0.419,0.099,0.797,-19.775,-90.454,-5.920
-0.391,0.077,0.884,-12.878,-95.276,-7.874
-0.360,0.025,0.953,1.099,-94.910,-11.108
-0.391,0.006,1.014,14.160,-89.478,-11.292
-0.357,-0.008,1.078,25.085,-81.360,-8.972
-0.289,-0.101,1.337,22.095,-75.195,-7.874
-0.244,-0.090,1.580,18.372,-64.392,-1.038
-0.274,0.010,1.674,8.850,-42.847,10.864
-0.366,0.134,1.656,-6.287,-18.677,18.616
-0.420,0.235,1.530,-15.015,3.784,19.714
-0.395,0.158,1.376,-13.733,20.874,12.756
-0.392,0.078,1.252,-8.118,33.447,5.493
-0.436,0.092,1.115,-4.944,44.861,4.150
-0.432,0.077,1.034,-3.174,51.270,2.869
-0.431,0.058,0.985,-1.038,53.528,1.282
-0.429,0.074,0.922,0.549,55.847,0.305
-0.422,0.039,0.859,2.563,56.946,-2.625
-0.426,0.012,0.807,3.479,55.054,-3.418
-0.408,0.018,0.819,2.686,48.889,0.061
-0.386,0.011,0.908,6.226,41.138,3.113
-0.361,0.007,1.035,8.911,36.133,5.737
-0.362,0.054,1.132,7.690,35.828,10.132
-0.380,0.121,1.218,6.409,38.818,12.634
-0.368,0.120,1.371,6.165,44.189,10.376
-0.290,0.096,1.692,-0.671,52.307,5.981
-0.282,0.147,1.965,-12.512,71.106,3.418
-0.357,0.269,2.177,-24.902,102.478,0.793
-0.496,0.441,2.130,-23.193,138.855,-5.981
-0.650,0.544,1.875,-11.047,175.476,-20.752
-0.736,0.540,1.534,0.183,199.585,-41.992
-0.742,0.405,1.149,-5.188,210.510,-62.195
-0.604,0.234,0.843,-19.104,205.627,-75.623
-0.464,0.075,0.706,-22.766,185.486,-81.604
-0.328,-0.030,0.652,-28.564,164.429,-78.003
-0.183,-0.044,0.600,-34.546,147.461,-66.772
-0.102,-0.035,0.574,-31.128,131.958,-57.922
-0.038,-0.059,0.655,-27.588,116.089,-51.819
0.011,-0.022,0.733,-20.935,104.065,-44.434
0.026,0.011,0.722,-9.888,97.839,-38.269
0.035,0.021,0.666,-3.296,92.224,-34.668
0.052,0.027,0.666,-2.014,83.557,-31.677
0.069,0.015,0.646,1.038,74.951,-28.870
0.075,0.018,0.628,1.404,66.101,-25.208
0.110,0.005,0.613,0.793,57.495,-21.606
0.128,-0.016,0.560,7.141,49.805,-19.409
0.143,-0.037,0.454,17.456,42.542,-16.663
0.155,-0.057,0.386,24.231,32.715,-12.878
0.148,-0.061,0.377,29.785,19.897,-9.155
0.145,-0.074,0.425,31.006,5.249,-5.249
0.162,-0.105,0.494,30.334,-9.766,0.854

-0.420,-0.065,3.187,-21.484,-240.417,56.213
-0.284,0.328,3.337,-22.888,-168.152,71.228
-0.304,0.542,3.041,12.817,-94.299,60.730
-0.361,0.428,2.635,25.513,-36.255,27.222
-0.374,0.231,2.122,1.831,14.404,2.625
-0.421,0.109,1.552,-11.108,52.124,-6.348
-0.421,0.021,1.049,-5.371,66.833,-8.972
-0.423,-0.020,0.844,-3.845,58.655,-9.705
-0.379,-0.072,0.712,-6.897,44.556,-8.545
-0.367,-0.068,0.643,-7.812,27.832,-4.822
-0.371,-0.062,0.691,-5.798,6.042,-0.732
-0.380,-0.003,0.812,-10.254,-13.184,4.456
-0.407,0.088,1.009,-14.526,-27.466,8.118
-0.396,0.102,1.178,-13.428,-33.386,6.409
-0.370,0.110,1.308,-12.939,-30.762,3.357
-0.354,0.145,1.439,-9.460,-23.682,-0.061
-0.336,0.138,1.507,-6.348,-10.254,-4.944
-0.305,0.105,1.430,-3.662,8.057,-9.155
-0.257,0.078,1.392,-0.854,23.621,-13.000
-0.237,0.050,1.292,-1.587,36.926,-16.541
-0.224,0.043,1.141,-0.122,48.584,-19.592
-0.221,-0.007,0.999,-1.221,53.650,-22.522
-0.206,-0.037,0.874,-6.042,52.002,-22.583
-0.189,-0.034,0.796,-8.850,45.532,-19.592
-0.179,-0.056,0.740,-5.005,36.743,-17.517
-0.171,-0.065,0.723,-0.183,26.306,-14.771
-0.174,-0.032,0.739,4.211,15.320,-10.010
-0.183,0.001,0.791,5.737,5.005,-7.019
-0.169,-0.000,0.879,3.967,-3.113,-6.470
-0.143,-0.014,0.980,2.747,-6.958,-5.981
-0.120,-0.007,1.036,4.211,-5.737,-4.883
-0.167,-0.024,1.028,5.981,-1.587,-4.639
-0.167,0.002,1.012,6.714,2.686,-2.197
-0.166,-0.013,1.008,7.629,4.272,-1.526
-0.182,-0.015,0.989,7.385,5.676,-0.793
-0.199,-0.007,0.935,8.484,5.737,1.099
-0.202,-0.006,0.892,6.226,3.784,2.319
-0.193,-0.031,0.897,5.188,-0.427,2.869
-0.204,-0.014,0.897,4.395,-3.357,4.517
-0.220,0.005,0.897,6.714,-5.249,6.348
-0.232,0.008,0.907,9.277,-7.874,6.042
-0.244,0.014,0.932,9.155,-10.986,6.042
-0.249,0.023,0.966,6.165,-13.977,6.409
-0.244,0.020,1.003,4.639,-15.381,6.287
-0.254,0.031,1.042,5.432,-14.954,5.676
-0.259,0.041,1.049,5.127,-12.878,4.944
-0.263,0.048,1.063,3.418,-10.681,4.333
-0.260,0.045,1.045,3.235,-7.935,3.235
-0.256,0.040,1.023,3.540,-5.310,1.404
-0.251,0.023,1.004,4.944,-3.845,-0.366
-0.239,0.002,1.000,5.920,-2.930,-1.587
-0.232,-0.005,1.001,6.897,-2.014,-1.587
-0.241,0.001,0.993,8.545,-1.892,-1.160
-0.247,0.008,1.002,9.460,-2.563,-0.549
-0.240,-0.003,1.012,8.484,-3.845,-0.427
-0.252,0.014,1.015,4.395,-4.517,0.732
-0.250,0.013,1.006,1.282,-5.432,1.160
-0.253,0.020,1.023,0.549,-6.836,0.549
-0.249,0.016,1.032,-0.183,-7.568,-0.183
-0.236,0.014,1.053,0.000,-6.836,-0.244
-0.225,-0.001,1.069,2.686,-5.798,-1.282
-0.226,-0.000,1.092,2.625,-4.333,-1.587
-0.240,0.020,1.082,1.099,-2.075,-0.671
-0.240,0.028,1.058,-2.136,0.183,-0.366
-0.236,0.020,1.049,-2.930,0.793,-1.404
-0.241,0.034,1.042,-0.732,1.587,-2.075
-0.240,0.018,0.998,2.075,2.747,-2.625
-0.235,0.022,0.990,2.197,2.075,-2.991
-0.236,0.014,1.001,2.380,0.549,-3.601
-0.232,0.008,1.000,2.502,-0.183,-3.418
-0.223,0.016,1.012,0.427,-0.916,-2.808
-0.219,0.004,1.029,0.427,-1.709,-3.296
-0.214,-0.011,1.012,0.854,-0.549,-3.723
-0.213,-0.002,1.038,1.160,-0.305,-3.052
-0.212,-0.002,1.045,3.174,-0.183,-2.441
-0.224,0.005,1.052,3.296,1.160,-1.709
-0.225,0.007,1.047,0.427,1.709,-1.099
-0.219,0.010,1.041,-2.319,1.953,-0.549
-0.215,0.000,1.020,-2.930,2.502,-1.038
-0.211,-0.013,0.999,-1.648,3.235,-1.465
-0.212,-0.014,0.962,-0.977,3.357,-0.610
-0.214,-0.018,0.955,1.343,2.258,0.183
-0.225,-0.009,0.953,4.150,0.427,1.282
-0.249,0.017,0.969,5.066,-1.587,2.197
-0.240,0.015,0.992,3.662,-3.418,2.014
-0.237,0.011,1.025,2.808,-4.272,1.709
-0.240,0.017,1.036,2.747,-3.784,1.526
-0.240,0.014,1.020,3.540,-1.892,1.038
-0.238,0.008,1.025,3.784,-0.671,0.671
-0.245,0.011,1.020,4.395,0.000,0.610
-0.249,0.015,1.005,4.211,0.366,0.427
-0.251,0.013,1.015,3.296,-0.305,0.061
-0.247,0.017,1.032,2.014,-1.038,0.183
-0.244,0.016,1.030,1.343,-0.610,-0.183
-0.241,0.016,1.033,0.977,-0.061,-0.916
-0.229,0.001,1.019,1.282,0.610,-1.770
-0.234,0.002,1.003,2.747,1.343,-2.197
-0.238,0.008,0.988,4.333,1.770,-2.014
-0.238,-0.001,0.982,4.944,1.099,-2.258
-0.232,-0.005,1.000,4.456,-0.244,-1.892
-0.231,-0.010,1.024,3.906,-1.038,-1.343
-0.233,-0.000,1.029,3.662,-0.793,-0.793
-0.236,0.008,1.022,2.319,-0.244,-0.671
-0.226,-0.004,1.026,0.977,0.183,-1.221
-0.224,-0.006,1.018,1.892,0.916,-1.343
-0.219,-0.014,0.998,2.991,2.319,-1.526
-0.225,-0.020,0.996,3.967,1.831,-1.587
-0.230,-0.003,0.985,3.052,0.916,-0.122
-0.226,-0.006,0.989,2.197,-0.427,0.244
-0.222,-0.015,1.013,2.075,-2.258,0.061
-0.225,0.001,1.031,2.441,-2.197,0.916
-0.231,0.011,1.034,3.723,-1.221,1.099
-0.240,0.017,1.033,4.395,-0.427,0.549
-0.244,0.013,1.016,2.136,0.122,0.122
-0.237,0.009,1.012,0.122,0.549,-0.183
-0.232,-0.003,1.005,-0.061,0.427,-0.793
-0.230,-0.003,0.992,0.061,0.671,-0.610
-0.234,-0.003,0.987,0.366,0.122,0.122
-0.236,0.005,0.998,0.549,-1.038,0.061

-0.064,0.125,2.969,-99.670,27.832,11.169
-0.258,0.394,3.149,-116.211,85.510,9.460
-0.503,0.626,2.810,-88.806,155.334,-11.047
-0.697,0.550,2.538,-49.316,209.290,-45.715
-0.745,0.367,2.075,-31.128,254.944,-75.623
-0.696,0.266,1.643,-21.118,284.973,-90.759
-0.759,0.155,1.201,-13.733,296.692,-97.046
-0.704,0.113,0.601,3.479,297.363,-97.534
-0.543,0.072,0.185,17.395,275.574,-94.177
-0.360,-0.092,0.003,12.695,241.028,-90.942
-0.095,-0.199,-0.140,-3.967,209.412,-77.393
0.032,-0.186,-0.339,-15.869,182.739,-54.077
0.185,-0.159,-0.444,-16.724,150.269,-33.936
0.292,-0.173,-0.340,-13.062,110.718,-22.217
0.345,-0.212,-0.158,0.244,73.303,-13.855
0.315,-0.123,0.015,20.081,41.931,-3.052
0.273,-0.036,0.223,36.865,14.709,6.226
0.258,-0.030,0.489,44.922,-7.568,10.010
0.262,-0.034,0.856,42.175,-24.780,10.742
0.243,-0.035,1.153,39.185,-29.968,10.498
0.197,-0.008,1.240,36.377,-20.020,10.559
0.170,0.056,1.165,24.841,-5.066,10.620
0.181,0.037,1.063,11.841,3.662,6.042
0.207,-0.045,0.969,1.831,6.226,1.038
0.211,-0.032,0.867,-3.540,6.226,2.747
0.205,0.004,0.786,-5.859,4.028,5.615
0.201,0.018,0.754,-4.883,-0.122,5.676
0.225,-0.012,0.761,-4.517,-5.005,4.944
0.236,-0.028,0.768,-1.892,-9.399,5.981
0.239,-0.032,0.830,2.319,-15.137,8.911
0.203,0.008,0.902,5.859,-19.714,12.634
0.176,0.048,0.978,8.789,-23.499,14.648
0.151,0.063,1.024,10.010,-26.550,14.404
0.133,0.079,1.094,9.338,-29.114,13.550
0.127,0.072,1.181,6.104,-31.677,12.390
0.128,0.069,1.214,1.770,-30.640,12.451
0.123,0.112,1.240,-4.211,-26.917,13.733
0.102,0.161,1.230,-3.906,-20.142,12.207
0.087,0.179,1.168,-1.831,-11.108,7.019
0.112,0.138,1.085,-2.197,-4.089,1.282
0.133,0.100,1.038,-4.272,-1.465,-2.441
0.150,0.091,1.020,-5.066,-0.977,-3.113
0.160,0.089,0.978,-3.479,0.305,-3.601
0.156,0.094,0.969,-0.488,-0.183,-5.005
0.177,0.059,0.976,0.427,-2.136,-6.348
0.196,0.033,1.000,0.183,-3.723,-6.409
0.193,0.050,1.048,1.038,-5.432,-5.371
0.182,0.061,1.066,1.099,-5.371,-4.639
0.190,0.046,1.083,0.122,-4.333,-4.700
0.210,0.018,1.127,1.404,-3.906,-4.822
0.202,0.025,1.117,2.075,-2.197,-3.784
0.194,0.043,1.084,0.183,0.610,-2.686
0.194,0.038,1.053,-0.122,1.587,-2.991
0.189,0.037,1.020,-0.793,2.258,-2.869
0.187,0.052,1.000,-2.014,1.831,-1.648
0.188,0.053,0.985,-2.991,0.244,-1.038
0.189,0.058,0.974,-3.967,-0.854,-0.610
0.177,0.073,0.984,-4.028,-1.465,-0.366
0.203,0.030,0.975,-1.038,-1.099,-0.854
0.174,0.054,1.010,1.038,-2.197,-0.366
0.172,0.068,1.009,1.099,-1.892,0.793
0.182,0.037,1.025,-0.488,-2.197,-0.061
0.168,0.054,1.083,-0.549,-3.784,0.488
0.184,0.052,1.061,-2.625,-2.686,1.465
0.162,0.075,1.102,-6.042,-1.404,0.366
0.186,0.080,1.067,-10.376,1.343,-1.587
0.205,0.015,0.965,-7.568,6.165,-2.563
0.180,0.054,0.986,1.953,3.540,-0.366
0.162,0.059,0.945,4.944,1.526,1.587
0.179,0.069,0.945,1.099,0.061,2.197
0.187,0.043,0.979,2.197,-2.808,1.343
0.179,0.049,0.989,3.662,-3.540,1.404
0.167,0.075,1.003,3.723,-3.601,2.686
0.163,0.070,1.023,5.005,-4.028,2.319
0.165,0.062,1.027,4.883,-4.028,2.075
0.178,0.051,1.053,4.089,-4.456,2.197
0.170,0.053,1.057,4.761,-4.395,2.869
0.171,0.063,1.042,4.395,-3.662,3.540
0.159,0.070,1.040,4.150,-2.808,3.174
0.160,0.067,1.025,6.348,-2.075,2.563
0.161,0.059,1.024,8.118,-1.587,2.014
0.161,0.064,1.024,8.484,-1.648,2.136
0.153,0.083,1.021,10.010,-1.038,2.197
0.153,0.083,1.004,10.132,-0.244,1.282
0.153,0.065,0.984,10.132,0.122,0.122
0.167,0.040,0.983,9.766,-0.854,-0.305
0.167,0.041,1.001,7.385,-2.441,0.671
0.165,0.044,1.047,4.333,-3.906,1.587
0.166,0.048,1.083,4.272,-4.211,1.770
0.163,0.059,1.104,5.188,-3.662,1.648
0.166,0.066,1.089,5.188,-1.648,0.793
0.160,0.058,1.080,5.432,0.000,-0.610
0.152,0.064,1.062,4.639,1.831,-1.221
0.186,0.051,1.006,4.028,2.991,-1.038
0.190,0.029,0.944,1.709,4.211,-1.343
0.176,0.033,0.991,7.141,1.282,-1.953
0.168,0.038,0.983,6.958,0.427,-0.977
0.172,0.061,0.959,3.235,0.916,0.549
0.179,0.033,1.017,3.540,-2.747,-0.610
0.175,0.051,1.046,3.601,-3.479,-0.183
0.184,0.045,1.050,2.502,-2.380,0.305
0.174,0.052,1.060,2.563,-1.465,-0.305
0.181,0.045,1.069,5.249,-0.366,-0.488
0.183,0.036,1.071,8.667,1.587,-0.549
0.181,0.044,1.062,11.719,3.601,-0.061
0.169,0.052,1.044,16.785,5.188,-0.549
0.180,0.048,0.989,24.841,6.592,-1.221
0.177,0.014,0.974,16.418,5.310,-2.380
0.175,0.036,0.955,3.662,4.822,-0.793
0.187,0.021,0.946,3.967,3.052,0.244
0.194,0.017,0.900,6.042,1.526,-0.183
0.189,0.023,0.848,3.174,0.183,0.854
0.184,0.015,0.782,1.282,-2.808,1.221
0.182,-0.018,0.707,1.038,-7.385,2.319
0.198,-0.043,0.586,0.183,-14.038,5.310
0.173,-0.060,0.442,-1.404,-25.452,10.559
0.147,-0.063,0.332,-10.132,-44.617,15.808
0.104,-0.026,0.294,-19.958,-71.045,22.278
0.036,0.057,0.294,-27.405,-98.877,26.428

0.113,-0.010,3.383,-8.789,30.029,0.122
-0.251,0.255,3.975,-22.583,101.196,-5.737
-0.732,0.671,3.656,-26.672,198.120,-17.029
-1.146,0.929,2.635,-17.456,297.668,-44.861
-1.198,0.695,1.752,8.911,347.473,-91.614
-1.039,0.369,1.034,17.578,357.483,-126.648
-0.848,0.059,0.536,17.456,338.196,-139.832
-0.533,-0.183,0.109,14.465,308.411,-133.911
-0.276,-0.259,-0.250,-17.212,269.714,-106.995
-0.089,-0.308,-0.451,-42.114,221.008,-77.026
0.058,-0.193,-0.640,-58.594,170.471,-46.143
0.271,-0.263,-0.771,-61.218,116.272,-26.245
0.398,-0.396,-0.725,-54.871,55.847,-13.794
0.376,-0.353,-0.610,-37.903,0.122,5.920
0.303,-0.217,-0.326,-15.808,-48.767,26.672
0.249,-0.094,0.081,10.437,-89.233,37.720
0.243,-0.016,0.634,38.696,-115.112,34.241
0.223,-0.164,1.196,68.970,-121.582,18.188
0.168,-0.241,1.441,82.642,-102.173,13.489
0.066,-0.068,1.492,71.533,-73.914,28.137
0.014,0.128,1.466,46.936,-49.744,35.156
0.036,0.090,1.336,22.034,-29.053,24.353
0.086,-0.059,1.195,3.540,-13.306,12.390
0.147,-0.135,1.053,-12.024,-3.967,12.146
0.135,-0.039,0.911,-17.700,1.099,19.836
0.118,0.043,0.827,-15.137,0.366,20.569
0.139,-0.025,0.767,-10.559,-3.296,12.451
0.129,-0.085,0.715,-5.554,-8.484,8.728
0.113,-0.053,0.729,-1.160,-19.409,13.428
0.094,-0.026,0.819,1.770,-32.898,18.372
0.059,0.010,0.952,6.897,-44.434,20.569
0.035,0.031,1.061,9.644,-50.110,21.790
0.020,0.036,1.168,9.338,-50.476,21.851
0.002,0.042,1.288,10.986,-48.279,21.973
-0.020,0.071,1.336,10.132,-41.199,22.461
-0.061,0.130,1.334,10.071,-30.212,21.667
-0.080,0.150,1.309,10.071,-20.386,17.517
-0.062,0.117,1.256,2.441,-11.108,11.902
-0.050,0.104,1.237,-3.235,-4.456,7.507
-0.012,0.040,1.182,-3.967,1.099,4.272
-0.018,0.073,1.105,-2.869,6.165,4.089
-0.021,0.078,1.081,-0.183,6.348,2.930
-0.031,0.058,1.053,-1.953,4.089,0.854
-0.010,0.063,1.073,-8.118,-0.244,1.953
0.008,0.076,1.122,-12.390,-4.395,1.465
0.006,0.041,1.149,-12.512,-5.920,-1.709
0.003,0.062,1.169,-9.827,-6.042,-1.343
-0.001,0.056,1.179,-8.911,-5.310,-1.404
-0.002,0.061,1.207,-11.169,-4.517,-1.343
-0.003,0.083,1.216,-13.550,-2.869,-1.282
0.003,0.077,1.218,-14.282,0.671,-3.052
0.018,0.070,1.214,-12.695,5.859,-5.493
0.019,0.074,1.166,-10.620,12.939,-7.202
0.025,0.057,1.075,-7.263,19.470,-9.766
0.022,0.044,1.001,-5.798,21.973,-10.925
0.040,0.062,0.980,-10.315,21.484,-11.108
0.056,0.024,0.949,-10.254,20.569,-10.925
0.070,0.018,0.963,-1.404,18.005,-8.606
0.094,0.002,0.945,2.014,17.212,-6.653
0.059,0.030,0.980,4.700,14.709,-5.249
0.038,0.072,0.985,4.089,12.451,-3.540
0.033,0.066,0.991,0.610,8.972,-4.150
0.041,0.063,1.048,-5.981,3.662,-3.601
0.062,0.077,1.092,-12.634,2.075,-2.380
0.057,0.085,1.086,-11.841,5.798,-3.540
0.055,0.077,1.105,-7.996,11.841,-5.554
0.057,0.078,0.995,-11.597,20.203,-6.531
0.071,0.079,0.956,-10.620,22.522,-6.775
0.060,0.080,0.941,-5.127,18.799,-7.263
0.092,0.059,0.944,-8.240,17.212,-9.399
0.085,0.039,0.943,-9.521,17.334,-8.972
0.084,0.052,0.947,-4.822,15.930,-5.493
0.091,0.077,0.926,2.380,13.916,-5.554
0.134,-0.004,0.986,-5.127,11.597,-6.409
0.138,0.019,0.984,-8.789,11.108,-5.066
0.121,0.034,0.983,-0.244,10.803,-2.930
0.109,0.045,0.999,0.183,7.751,-1.587
0.120,0.048,1.036,-3.357,5.615,-0.427
0.129,0.034,1.091,-2.441,4.944,0.305
0.122,0.049,1.078,1.953,8.545,2.136
0.112,0.061,1.045,6.287,12.024,3.052
0.103,0.064,1.017,11.414,13.184,3.174
0.107,0.067,0.971,14.404,13.184,3.723
0.120,0.050,0.983,7.690,11.169,3.540
0.116,0.057,0.995,5.432,9.521,3.906
0.106,0.068,1.002,7.874,8.545,4.395
0.118,0.057,0.985,12.207,7.080,4.822
0.122,0.051,0.994,10.498,6.958,5.371
0.128,0.073,1.013,14.771,6.531,5.737
0.104,0.070,1.006,20.386,6.775,5.005
0.090,0.067,1.054,18.433,5.920,3.967
0.123,0.067,1.116,12.573,4.700,3.967
0.088,0.060,1.096,3.235,6.653,0.793
0.117,0.040,1.073,-2.258,9.033,0.977
0.136,0.060,1.046,-3.723,11.230,2.808
0.139,0.052,1.013,2.258,12.817,1.648
0.130,0.043,1.005,5.188,13.672,0.671
0.139,0.024,0.989,4.700,13.916,1.282
0.123,0.055,1.016,1.343,13.367,2.991
0.126,0.084,1.044,0.000,13.123,1.648
0.144,0.045,0.985,0.793,14.343,-0.916
0.163,0.041,0.927,3.357,15.198,0.061
0.155,0.073,0.895,3.296,12.390,0.488
0.145,0.034,0.870,0.793,8.484,-0.793
0.156,0.051,0.830,-1.404,5.127,1.526
0.149,0.040,0.782,-0.305,1.160,2.258
0.146,0.021,0.691,0.854,-3.174,2.930
0.142,-0.040,0.508,0.427,-9.583,5.615
0.158,-0.077,0.293,-4.517,-23.071,13.550
0.081,-0.006,0.047,-6.104,-45.410,24.719
0.029,0.021,-0.144,-7.202,-76.904,29.663
0.033,-0.046,-0.179,-0.427,-116.760,28.625
-0.084,-0.010,-0.179,8.972,-154.785,28.870
-0.260,0.062,-0.077,23.010,-190.063,27.832
-0.407,0.075,0.197,35.522,-222.656,22.400
-0.495,0.048,0.525,49.561,-242.249,19.714
-0.591,0.116,0.940,65.186,-247.681,18.860
-0.565,0.095,1.413,98.816,-239.990,9.583
-0.483,0.044,1.832,136.597,-221.741,-5.310

-0.170,-0.229,2.525,148.254,-152.832,-23.437
-0.134,-0.237,2.661,129.578,-106.873,-16.785
-0.183,-0.160,2.524,83.252,-57.434,-3.113
-0.286,0.076,2.213,29.236,-11.963,12.756
-0.269,0.070,1.922,-2.930,21.606,11.169
-0.254,-0.114,1.667,-31.799,44.189,-0.427
-0.286,-0.104,1.320,-53.528,63.538,1.953
-0.315,-0.066,1.001,-61.462,71.106,3.113
-0.298,-0.102,0.811,-64.880,62.317,-2.930
-0.263,-0.186,0.767,-76.477,45.837,-6.226
-0.193,-0.177,0.806,-75.989,29.480,-3.662
-0.183,-0.141,0.919,-47.729,14.954,-2.502
-0.184,-0.170,1.022,-24.841,5.310,-4.272
-0.160,-0.149,1.140,-18.250,1.526,-0.183
-0.155,-0.079,1.266,-9.705,0.916,5.188
-0.162,-0.053,1.339,1.648,6.165,5.188
-0.165,-0.057,1.386,7.690,13.916,3.540
-0.160,-0.048,1.429,2.319,22.644,4.272
-0.170,-0.000,1.452,-9.644,32.959,5.920
-0.200,0.048,1.413,-17.334,45.166,6.226
-0.204,0.088,1.301,-19.531,57.617,4.089
-0.197,0.065,1.156,-19.653,66.650,-1.282
-0.167,0.025,1.026,-24.170,70.251,-5.310
-0.134,0.021,0.927,-29.724,69.275,-5.859
-0.125,0.018,0.852,-29.602,65.186,-6.165
-0.103,-0.005,0.799,-26.184,58.044,-6.775
-0.089,-0.014,0.801,-20.630,47.974,-6.226
-0.073,-0.005,0.817,-18.372,39.795,-4.333
-0.077,0.006,0.818,-17.029,34.241,-1.404
-0.086,0.031,0.852,-11.047,28.870,1.587
-0.078,0.067,0.901,-5.005,23.865,3.357
-0.089,0.129,1.036,5.798,21.057,1.282
-0.104,0.147,1.088,23.743,23.682,-5.249
-0.126,0.124,1.102,39.368,27.710,-13.000
-0.090,0.066,1.120,40.710,31.738,-17.761
-0.051,0.035,1.202,31.494,34.973,-19.714
-0.042,0.010,1.181,14.771,41.199,-20.081
-0.017,0.009,1.132,6.836,48.279,-19.043
-0.036,0.031,1.120,2.869,50.293,-17.639
0.008,0.108,1.041,-2.747,50.842,-17.700
0.067,0.033,0.978,-10.010,49.683,-21.851
0.079,-0.092,0.905,-14.282,46.082,-23.376
0.085,-0.086,0.792,-17.334,42.053,-16.724
0.080,-0.033,0.752,-19.043,34.607,-8.789
0.067,-0.053,0.747,-15.320,24.353,-6.348
0.053,-0.081,0.852,-9.094,13.123,-3.479
0.035,-0.024,0.892,-5.127,9.399,2.441
0.003,0.045,0.944,1.221,5.005,4.700
0.016,0.052,1.058,5.981,-0.610,1.587
0.031,-0.016,1.062,2.563,4.944,-1.709
0.031,-0.013,0.994,-2.197,13.184,0.854
0.036,0.032,1.029,0.244,13.062,4.456
0.027,0.015,1.087,5.981,12.085,2.747
0.013,0.021,1.081,7.996,15.930,2.197
0.031,0.036,1.058,5.737,20.264,3.113
0.072,-0.003,1.035,3.357,24.414,1.648
0.082,-0.035,0.983,8.423,27.710,0.732
0.069,-0.051,0.976,10.620,29.968,3.174
0.074,-0.008,1.007,13.184,30.090,7.751
0.093,0.010,0.985,15.564,31.250,9.766
0.090,0.054,0.974,20.569,28.992,7.507
0.104,0.017,1.044,23.682,23.621,2.258
0.113,-0.065,1.066,19.287,23.315,-1.343
0.123,-0.073,1.037,11.780,25.391,2.869
0.109,-0.032,1.026,7.874,23.926,9.277
0.098,0.021,1.024,0.244,21.545,12.146
0.101,0.024,1.057,-8.057,18.127,10.376
0.124,-0.024,1.151,-6.592,15.198,7.629
0.113,-0.020,1.175,-2.808,16.907,9.399
0.095,0.049,1.167,-5.371,21.423,13.611
0.107,0.101,1.190,-7.874,25.452,12.451
0.107,0.041,1.159,-8.118,31.860,3.723
0.106,-0.011,1.103,-7.080,37.170,-0.793
0.137,-0.020,1.111,-9.766,40.283,1.831
0.140,0.003,1.070,-12.207,44.922,4.211
0.113,-0.008,1.108,-15.076,45.837,5.615
0.093,0.045,1.093,-15.625,46.753,4.395
0.078,0.121,1.005,-19.714,49.622,6.287
0.107,0.103,0.939,-26.306,48.706,1.587
0.133,0.039,0.845,-25.940,46.692,-4.517
0.162,0.042,0.785,-22.766,41.382,-4.944
0.145,0.053,0.761,-18.860,32.654,-3.967
0.136,0.062,0.723,-12.329,24.719,-2.625
0.162,0.039,0.729,-5.554,15.991,-2.930
0.163,0.030,0.803,3.540,6.592,-3.540
0.177,0.025,0.851,15.686,1.465,-4.883
0.166,-0.008,0.996,25.574,-2.991,-7.629
0.139,0.008,1.179,32.898,-7.141,-7.935
0.124,0.048,1.256,28.381,-4.700,-5.371
0.155,0.071,1.295,12.024,-0.244,-4.578
0.187,0.071,1.315,1.709,2.808,-6.714
0.195,0.048,1.270,-4.028,8.057,-9.644
0.217,0.052,1.193,-10.681,15.930,-10.010
0.228,0.081,1.120,-12.390,22.827,-8.972
0.233,0.116,1.086,-6.775,26.611,-9.338
0.254,0.117,1.018,-2.197,30.884,-12.878
0.265,0.083,0.943,2.441,34.058,-18.372
0.265,0.044,0.869,9.216,32.715,-20.264
0.267,0.039,0.819,9.705,27.832,-17.761
0.276,0.047,0.805,7.751,19.897,-14.221
0.292,0.038,0.882,9.216,10.376,-13.672
0.254,0.049,0.993,16.541,2.930,-14.893
0.218,0.073,1.031,21.606,1.465,-14.771
0.237,0.061,1.074,17.395,2.136,-14.771
0.275,0.017,1.114,10.254,3.784,-16.479
0.275,-0.019,1.089,6.287,8.240,-16.968
0.281,-0.023,1.040,3.113,13.000,-15.015
0.287,-0.025,1.000,1.465,16.235,-13.184
0.298,-0.062,0.990,3.052,16.235,-12.390
0.316,-0.084,0.961,3.052,15.076,-10.071
0.326,-0.083,0.942,3.479,12.146,-6.897
0.326,-0.078,0.958,5.310,7.141,-5.066
0.327,-0.071,0.966,8.057,3.052,-3.174
0.328,-0.078,0.970,8.972,0.488,-1.526
0.326,-0.091,0.988,10.559,-1.709,0.732
0.300,-0.086,0.997,14.343,-3.418,3.906
0.270,-0.054,0.973,12.634,-4.028,8.179
0.251,-0.034,0.927,7.202,-4.517,11.475
0.246,-0.014,0.890,5.371,-6.836,12.512

-0.128,0.004,2.315,60.974,-131.042,21.301
-0.184,0.080,2.077,73.730,-87.830,20.752
-0.226,0.076,1.864,44.006,-57.495,18.127
-0.226,0.096,1.695,8.179,-36.377,20.386
-0.187,0.134,1.580,-3.906,-20.081,19.531
-0.189,0.067,1.559,-3.296,-7.874,8.484
-0.196,0.040,1.507,2.014,4.211,1.526
-0.182,0.065,1.459,3.662,15.442,-0.427
-0.156,0.026,1.395,-2.075,22.339,-4.333
-0.155,0.014,1.354,-13.489,26.794,-6.226
-0.122,-0.010,1.356,-26.672,32.471,-5.676
-0.077,-0.031,1.217,-39.795,44.617,-4.211
-0.074,0.014,1.110,-41.199,50.110,-4.272
-0.085,-0.021,1.069,-28.931,48.218,-7.141
-0.075,-0.059,1.011,-24.414,46.021,-7.751
-0.071,-0.023,0.970,-27.649,43.274,-3.540
-0.031,0.030,1.013,-17.761,37.842,-2.136
-0.014,-0.038,1.091,-4.944,30.823,-7.507
0.011,-0.067,1.070,2.808,30.151,-8.118
0.027,-0.038,1.093,6.470,28.870,-5.737
0.033,-0.031,1.107,14.771,26.367,-5.127
0.013,-0.043,1.055,20.264,26.184,-5.310
-0.004,-0.031,0.967,17.761,24.963,-3.357
-0.013,-0.027,0.924,15.442,18.127,-1.648
-0.029,-0.055,0.906,13.794,8.667,-1.099
-0.064,-0.040,0.899,10.193,-1.404,1.953
-0.081,0.007,0.914,2.991,-10.620,5.371
-0.093,0.012,0.921,0.610,-18.311,3.784
-0.082,-0.036,0.978,-0.916,-24.658,0.427
-0.073,-0.068,1.059,-3.906,-27.222,0.977
-0.064,-0.034,1.101,-5.737,-23.437,5.249
-0.058,-0.005,1.111,-4.333,-18.433,7.019
-0.054,0.003,1.142,3.357,-14.648,5.371
-0.042,-0.017,1.231,9.705,-12.146,2.808
-0.026,-0.066,1.270,12.878,-5.310,3.357
-0.023,-0.036,1.249,13.672,4.883,7.141
-0.056,-0.019,1.113,21.606,15.930,8.911
-0.073,-0.025,0.983,22.156,20.996,7.874
-0.106,-0.009,0.915,11.169,18.616,8.301
-0.120,0.033,0.884,-1.892,13.489,9.705
-0.097,0.042,0.879,-7.751,7.141,8.423
-0.083,-0.008,0.894,-10.315,0.488,4.639
-0.064,-0.019,0.929,-12.939,-3.662,4.761
-0.056,0.009,0.979,-10.254,-5.066,5.859
-0.065,0.000,1.001,-3.235,-4.761,4.761
-0.057,-0.019,1.018,1.282,-3.235,3.540
-0.062,-0.016,1.052,2.380,-1.160,4.089
-0.064,-0.023,1.055,6.104,1.282,4.395
-0.068,-0.052,1.049,7.019,3.052,5.432
-0.070,-0.049,1.056,3.296,3.296,8.606
-0.068,-0.041,1.078,0.305,2.869,11.169
-0.078,-0.036,1.113,-1.892,2.441,11.353
-0.083,-0.036,1.147,-8.667,3.479,11.780
-0.073,-0.014,1.137,-14.954,6.592,13.062
-0.084,0.013,1.113,-16.785,9.399,13.611
-0.084,0.033,1.064,-14.038,11.780,12.390
-0.066,0.015,1.107,-11.292,13.000,9.399
-0.070,-0.019,1.214,-8.240,14.404,7.202
-0.039,-0.022,1.222,-10.193,21.912,10.010
-0.042,0.010,1.298,-14.160,30.457,12.329
-0.043,0.035,1.401,-17.639,37.720,10.498
-0.061,0.049,1.438,-17.090,48.950,7.568
-0.110,0.113,1.328,-21.423,62.378,6.104
-0.134,0.168,1.170,-27.771,73.303,3.723
-0.103,0.196,1.065,-29.663,76.355,-2.014
-0.111,0.205,1.038,-29.480,75.867,-9.583
-0.056,0.166,0.977,-31.250,76.843,-19.836
0.011,0.049,0.905,-30.090,78.857,-26.489
0.067,0.063,0.941,-15.503,76.050,-24.719
0.073,0.074,0.943,-4.333,75.317,-23.315
0.059,0.051,0.949,-10.010,75.867,-24.292
0.091,0.081,0.936,-4.272,75.928,-21.362
0.102,0.079,0.963,1.465,74.097,-21.851
0.107,0.050,1.001,4.211,72.144,-23.926
0.108,0.066,1.003,5.737,70.923,-22.156
0.107,0.100,0.964,5.127,69.763,-19.775
0.137,0.103,0.876,2.380,67.505,-20.325
0.183,0.070,0.893,-8.179,61.279,-23.071
0.215,0.058,0.926,-13.184,56.213,-24.719
0.251,0.052,0.932,-18.799,56.641,-26.550
0.258,0.025,0.898,-5.737,59.204,-27.588
0.236,0.067,0.823,18.005,61.523,-23.132
0.233,0.137,0.724,39.124,59.204,-20.081
0.240,0.122,0.642,44.006,51.270,-22.705
0.242,0.056,0.697,36.011,38.025,-27.344
0.309,-0.003,0.791,11.963,26.611,-28.870
0.372,-0.092,0.838,-3.113,20.752,-25.757
0.365,-0.061,0.906,6.897,14.587,-17.944
0.336,-0.017,0.939,16.418,9.521,-12.878
0.324,-0.040,0.951,14.160,5.737,-11.108
0.360,-0.061,0.965,12.756,1.160,-8.545
0.384,-0.101,0.968,10.193,-2.625,-6.226
0.368,-0.104,0.964,6.104,-4.883,-3.052
0.359,-0.075,0.968,5.737,-7.385,3.113
0.351,-0.051,0.968,4.028,-9.521,7.568
0.330,-0.044,0.950,3.784,-10.193,9.460
0.300,-0.028,0.942,6.165,-11.414,11.902
0.275,0.005,0.940,7.385,-12.756,14.771
0.260,0.014,1.006,7.568,-15.442,15.076
0.256,-0.019,1.094,9.583,-17.761,13.977
0.256,-0.035,1.148,10.681,-17.212,15.015
0.243,-0.016,1.151,8.545,-14.343,17.395
0.225,0.001,1.165,5.676,-11.902,17.639
0.215,-0.008,1.184,1.282,-11.230,16.235
0.204,0.007,1.193,-5.554,-8.728,16.296
0.206,0.011,1.170,-8.301,-4.578,15.686
0.208,0.014,1.144,-7.080,-0.427,14.771
0.203,0.026,1.110,-4.395,4.761,13.733
0.208,0.032,1.007,1.770,10.254,12.573
0.222,0.033,0.968,3.601,13.184,10.010
0.222,0.024,0.929,4.517,13.000,7.141
0.210,-0.009,0.887,5.371,11.536,5.188
0.218,-0.004,0.891,6.226,7.202,5.859
0.203,0.005,0.937,5.676,2.197,7.141
0.215,-0.011,0.963,8.545,-0.671,7.690
0.212,-0.010,1.011,11.536,-2.380,7.690
0.192,-0.004,1.046,17.334,-3.479,8.240
0.185,0.011,1.032,16.602,-2.991,9.399
0.177,0.033,1.042,11.902,-2.747,9.949

0.023,-0.299,2.702,67.993,-176.819,11.475
-0.072,-0.091,2.496,90.210,-109.070,34.424
-0.154,0.100,2.096,70.190,-53.101,47.302
-0.206,0.131,1.796,39.368,-16.541,47.546
-0.254,0.114,1.472,28.748,5.127,44.434
-0.298,0.141,1.234,23.865,17.151,41.565
-0.339,0.158,1.107,25.696,17.639,34.180
-0.364,0.032,0.976,26.550,13.733,20.874
-0.395,0.085,1.055,18.677,-2.808,19.897
-0.359,0.163,1.209,-4.272,-18.616,21.729
-0.313,0.162,1.320,-13.733,-23.132,13.977
-0.245,0.034,1.407,-17.273,-19.592,1.831
-0.203,0.037,1.374,-25.513,-7.629,-1.831
-0.218,0.021,1.362,-19.165,4.456,-5.188
-0.226,-0.001,1.323,-14.587,17.212,-8.545
-0.251,0.057,1.177,-12.512,32.837,-8.362
-0.250,0.039,1.067,-8.728,42.053,-11.963
-0.243,0.023,0.992,-5.981,44.922,-15.625
-0.218,-0.007,0.955,-5.188,44.373,-16.785
-0.198,-0.036,0.878,-5.920,43.152,-16.968
-0.169,-0.063,0.850,-5.981,39.307,-14.893
-0.150,-0.099,0.821,-1.526,32.776,-12.573
-0.133,-0.097,0.818,4.883,24.597,-8.606
-0.126,-0.104,0.855,9.766,15.564,-5.493
-0.130,-0.095,0.927,14.221,6.104,-2.136
-0.134,-0.072,0.969,14.526,-1.831,2.075
-0.135,-0.061,1.013,10.193,-7.385,5.432
-0.136,-0.059,1.061,6.653,-11.353,7.446
-0.152,-0.049,1.064,4.761,-11.536,9.888
-0.174,-0.045,1.064,-0.793,-10.498,12.817
-0.178,-0.000,1.049,-6.165,-9.949,16.968
-0.221,0.098,1.057,-3.906,-8.850,16.479
-0.212,0.058,1.145,0.671,-10.376,8.240
-0.225,0.043,1.087,2.991,-5.310,4.150
-0.204,0.068,1.092,0.061,-3.906,3.479
-0.193,0.061,1.114,-0.854,-3.296,0.854
-0.209,0.003,1.122,-5.859,0.122,-0.732
-0.191,0.083,1.040,-1.221,4.883,-1.343
-0.194,0.052,1.166,4.089,2.380,-4.944
-0.170,0.062,1.128,1.038,6.470,-7.385
-0.147,0.044,1.138,0.488,10.193,-9.521
-0.152,-0.005,1.078,0.549,12.695,-11.841
-0.119,0.012,1.056,-3.540,15.442,-9.827
-0.126,0.004,1.023,-3.601,15.442,-9.338
-0.126,0.010,0.968,-3.052,17.761,-9.094
-0.122,-0.017,0.932,-2.563,16.968,-9.216
-0.116,-0.034,0.891,-1.404,15.015,-8.240
-0.116,-0.021,0.891,-2.014,11.169,-5.981
-0.108,-0.014,0.921,-2.441,6.592,-4.456
-0.100,-0.037,0.934,0.061,3.967,-4.089
-0.101,-0.046,0.981,-0.122,2.014,-2.258
-0.100,-0.033,1.016,0.061,1.526,0.916
-0.113,-0.029,1.027,2.563,2.625,2.625
-0.129,-0.005,1.037,3.296,4.089,3.967
-0.135,0.020,1.044,2.319,5.371,4.517
-0.143,0.006,1.018,1.648,6.592,2.930
-0.149,0.001,1.006,-1.587,6.470,2.502
-0.127,-0.006,0.984,-5.920,5.615,3.845
-0.120,-0.007,0.961,-6.897,4.761,4.150
-0.128,-0.025,0.961,-1.587,3.540,3.418
-0.158,0.017,0.957,-0.427,3.174,4.944
-0.129,0.028,0.951,-1.648,3.113,6.104
-0.127,0.011,0.970,2.136,1.099,3.479
-0.152,0.015,0.986,2.563,-0.366,3.296
-0.135,0.044,0.976,0.061,-1.160,5.432
-0.141,0.025,0.968,-1.587,-1.892,3.784
-0.155,0.048,0.984,0.183,-2.747,2.441
-0.152,0.043,0.983,1.526,-3.235,1.404
-0.144,0.045,0.995,-0.793,-3.540,0.122
-0.130,0.031,1.029,-1.648,-4.272,-0.916
-0.139,0.047,1.033,-0.671,-3.601,-1.282
-0.153,0.056,1.020,-1.465,-2.258,-1.831
-0.144,0.047,1.007,-2.625,-1.465,-3.174
-0.131,0.025,1.013,-2.808,-1.831,-4.639
-0.123,0.015,1.027,-3.540,-1.648,-4.883
-0.120,0.008,1.042,-3.113,0.183,-4.150
-0.103,-0.007,1.040,-1.038,2.502,-3.296
-0.131,0.016,1.028,1.099,4.150,-1.221
-0.142,0.041,1.024,2.502,5.188,-0.732
-0.147,0.033,1.007,4.150,5.554,-2.014
-0.136,0.008,0.993,4.883,5.249,-3.235
-0.125,-0.002,1.012,5.371,2.808,-2.869
-0.125,0.003,1.022,6.042,0.793,-2.197
-0.129,0.017,1.019,4.456,0.183,-1.587
-0.129,0.013,1.003,2.747,-0.183,-1.892
-0.136,0.016,0.998,2.136,-1.282,-2.319
-0.137,0.017,0.998,2.686,-3.052,-2.991
-0.135,0.001,0.995,2.319,-4.150,-3.418
-0.136,0.004,1.000,1.709,-5.493,-3.174
-0.137,0.000,1.029,2.136,-7.629,-2.747
-0.129,0.009,1.056,3.174,-8.545,-2.258
-0.142,0.021,1.081,4.761,-8.240,-2.258
-0.139,0.017,1.085,4.883,-7.080,-2.502
-0.130,0.011,1.060,3.906,-5.249,-2.319
-0.138,0.016,1.041,2.747,-4.578,-2.319
-0.146,0.015,1.021,1.465,-4.456,-2.380
-0.140,0.018,1.005,0.061,-4.578,-2.441
-0.138,0.018,0.999,1.221,-5.920,-3.662
-0.128,-0.014,1.018,3.601,-8.118,-5.188
-0.133,-0.006,1.016,3.235,-8.423,-4.395
-0.145,0.014,1.012,1.770,-8.362,-3.174
-0.151,0.012,1.021,3.357,-10.132,-3.601
-0.149,0.001,1.010,4.639,-10.803,-3.845
-0.143,-0.002,1.018,4.517,-11.719,-3.601
-0.143,-0.003,1.034,6.165,-13.123,-3.479
-0.135,-0.005,1.072,5.798,-13.184,-3.418
-0.120,-0.023,1.078,5.615,-11.292,-3.418
-0.129,-0.028,1.054,6.714,-7.996,-2.686
-0.148,-0.013,1.024,6.592,-6.042,-0.854
-0.157,-0.011,0.988,4.578,-5.127,0.427
-0.163,-0.018,0.947,6.226,-6.653,0.854
-0.174,-0.005,0.935,6.348,-10.620,1.465
-0.179,0.009,0.918,5.615,-15.320,1.770
-0.189,0.001,0.895,5.981,-21.118,0.977
-0.195,0.004,0.797,5.554,-27.100,0.916
-0.197,0.010,0.736,4.944,-36.926,0.549
-0.243,-0.011,0.739,7.629,-50.720,-1.404
-0.271,0.019,0.707,7.080,-63.171,-0.488
-0.325,0.063,0.774,10.681,-75.867,-0.977

0.163,-0.114,3.322,-56.519,-57.190,-2.563
-0.079,0.114,4.000,-170.044,7.751,0.610
-0.488,0.727,4.000,-268.677,99.915,14.282
-0.982,1.398,4.000,-223.083,214.111,-3.296
-1.378,0.977,3.081,-119.324,314.331,-89.966
-1.383,0.489,1.987,-32.593,372.559,-149.658
-1.172,0.047,1.022,19.653,391.113,-172.546
-0.894,-0.245,0.116,32.898,388.855,-169.128
-0.617,-0.218,-0.708,23.071,366.638,-144.165
-0.390,-0.130,-1.301,20.203,322.876,-106.262
-0.070,-0.149,-1.670,10.864,255.981,-70.129
0.262,-0.224,-1.497,-27.466,166.016,-41.504
0.474,-0.336,-1.199,-39.551,84.167,-19.409
0.488,-0.257,-0.827,-9.827,21.240,2.625
0.482,-0.119,-0.379,31.006,-27.100,17.151
0.441,-0.073,0.212,69.153,-67.017,15.015
0.351,-0.177,0.924,110.535,-91.064,4.456
0.249,-0.241,1.391,120.544,-86.365,7.019
0.158,-0.097,1.670,87.524,-67.749,24.841
0.100,0.057,1.711,56.946,-45.898,37.720
0.048,0.122,1.520,31.799,-20.752,37.354
0.059,0.129,1.269,3.540,-2.563,30.701
0.093,0.020,1.096,-17.090,3.784,23.499
0.135,0.080,1.010,-35.339,3.479,23.743
0.129,0.173,1.001,-30.762,4.028,21.729
0.143,0.122,1.008,-19.470,5.737,8.728
0.164,0.070,0.980,-14.221,9.827,0.610
0.188,0.084,0.909,-14.404,15.442,0.610
0.198,0.091,0.856,-9.399,18.433,0.305
0.209,0.079,0.810,-0.671,19.226,-1.404
0.225,0.035,0.736,6.348,19.104,-2.319
0.219,0.015,0.698,14.954,15.015,-0.183
0.213,-0.000,0.697,21.606,5.432,4.395
0.213,0.005,0.827,14.587,-7.446,8.972
0.162,0.070,1.014,11.047,-19.714,12.817
0.152,0.078,1.106,8.972,-24.597,13.611
0.138,0.085,1.191,3.296,-26.062,12.817
0.137,0.105,1.252,-1.953,-26.062,13.184
0.126,0.125,1.271,-6.775,-22.034,11.536
0.108,0.163,1.254,-9.888,-15.686,8.728
0.125,0.163,1.199,-9.766,-7.568,3.784
0.156,0.120,1.149,-6.592,-0.427,-2.502
0.156,0.120,1.088,-1.221,6.104,-5.859
0.142,0.144,1.009,2.686,11.414,-7.019
0.170,0.107,0.932,3.845,13.428,-9.705
0.186,0.100,0.893,4.150,11.414,-11.169
0.196,0.093,0.892,6.042,6.165,-11.108
0.197,0.089,0.955,6.165,-0.610,-11.658
0.208,0.073,0.989,8.057,-3.723,-11.963
0.205,0.080,0.993,10.437,-5.005,-11.047
0.210,0.063,1.092,13.123,-8.545,-11.292
0.201,0.077,1.130,12.634,-6.958,-10.193
0.196,0.089,1.132,11.963,-3.052,-9.888
0.200,0.064,1.117,11.963,0.244,-11.475
0.207,0.044,1.093,10.193,3.540,-11.475
0.211,0.046,1.052,9.766,6.409,-9.827
0.210,0.060,0.998,11.658,7.935,-8.850
0.208,0.064,0.963,7.812,7.996,-10.681
0.230,0.000,0.948,5.432,6.531,-11.719
0.231,0.042,0.935,12.390,4.395,-7.263
0.232,0.021,0.929,9.033,2.930,-6.042
0.227,0.035,0.947,5.920,-0.183,-4.944
0.244,0.010,0.942,4.150,-2.563,-3.723
0.244,-0.001,0.996,3.052,-4.944,-2.930
0.227,0.021,1.029,2.258,-5.371,-0.183
0.214,0.046,1.043,3.235,-4.395,1.221
0.208,0.048,1.041,5.920,-2.930,1.038
0.198,0.058,1.015,6.348,-1.038,0.854
0.191,0.070,1.000,2.869,-0.305,0.977
0.196,0.060,0.982,-0.610,-0.610,0.000
0.204,0.050,0.981,0.244,-0.732,-1.038
0.206,0.045,0.969,4.700,-0.488,-1.587
0.204,0.039,0.974,9.460,-0.427,-1.770
0.223,0.030,0.964,14.709,-1.404,-1.282
0.218,0.018,0.954,13.000,-1.526,-0.366
0.211,0.032,0.994,11.475,-3.418,0.793
0.206,0.047,1.010,10.498,-3.967,1.648
0.202,0.027,1.039,9.888,-4.333,1.221
0.203,0.029,1.068,8.606,-4.272,1.831
0.203,0.033,1.068,10.132,-2.747,2.563
0.196,0.039,1.055,15.808,-0.305,2.197
0.193,0.048,1.025,24.719,1.526,1.709
0.198,0.039,0.995,29.419,2.686,1.099
0.195,0.044,0.993,29.419,1.404,0.671
0.207,0.013,1.001,26.428,-0.916,0.610
0.211,0.015,0.985,20.996,-2.502,0.916
0.215,0.013,1.012,14.832,-4.028,0.305
0.216,-0.001,1.039,3.601,-4.517,-0.061
0.205,0.038,1.037,3.540,-3.418,1.038
0.202,0.027,1.026,7.507,-2.869,0.366
0.207,0.019,1.017,5.493,-2.625,-0.366
0.197,0.024,1.028,4.456,-3.174,-0.244
0.199,0.019,1.042,3.845,-3.845,-0.183
0.193,0.022,1.055,2.686,-3.784,-0.183
0.196,0.031,1.059,4.395,-3.784,-0.183
0.196,0.028,1.038,5.493,-3.174,-1.221
0.206,0.007,1.039,3.296,-3.113,-2.563
0.219,-0.007,1.020,1.831,-2.502,-2.808
0.211,0.000,1.050,2.380,-2.319,-2.075
0.211,0.002,1.062,4.639,0.000,-1.343
0.205,0.010,1.037,8.545,2.930,-1.038
0.197,0.018,1.004,9.583,4.395,-0.732
0.193,0.021,0.987,7.141,3.357,-1.038
0.201,0.008,0.983,4.944,1.343,-1.343
0.206,-0.005,0.971,4.456,-1.221,-1.587
0.211,-0.007,0.995,-2.625,-3.052,-1.099
0.209,-0.005,1.005,-4.272,-3.784,-0.488
0.218,-0.018,1.034,-1.526,-3.601,-0.061
0.223,-0.024,1.053,2.075,-2.014,0.732
0.210,-0.006,1.042,4.272,-0.549,1.953
0.193,0.013,1.027,4.211,-0.183,2.625
0.192,0.004,1.013,2.625,-1.099,2.075
0.204,-0.004,1.015,0.427,-2.197,1.709
0.207,-0.007,1.045,1.526,-2.502,2.136
0.204,-0.002,1.056,5.432,-0.854,2.197
0.192,0.012,1.038,10.681,2.258,2.014
0.193,0.015,1.052,16.296,3.723,1.526
0.209,0.003,1.005,28.992,4.395,0.183
0.205,-0.040,1.026,27.100,2.075,-0.977

-0.088,-0.248,2.762,79.895,-177.490,17.395
-0.139,-0.098,3.003,77.087,-119.873,25.635
-0.247,0.087,2.945,51.941,-60.608,36.316
-0.346,0.376,2.583,28.076,-4.517,40.222
-0.386,0.224,2.189,15.015,36.987,21.790
-0.440,0.215,1.864,-16.235,59.814,8.850
-0.438,0.241,1.555,-47.729,72.571,2.197
-0.354,0.175,1.309,-70.374,74.585,-10.071
-0.279,0.097,1.155,-79.529,72.632,-21.423
-0.191,-0.032,1.113,-64.209,64.331,-29.785
-0.135,-0.083,1.105,-39.001,56.213,-27.893
-0.114,-0.071,1.143,-28.137,51.392,-18.921
-0.112,-0.007,1.195,-29.785,48.767,-10.742
-0.112,0.041,1.238,-30.151,48.157,-6.775
-0.127,0.080,1.260,-21.973,48.706,-8.118
-0.127,0.068,1.239,-12.024,50.476,-12.268
-0.133,0.086,1.193,-6.409,52.490,-15.259
-0.117,0.096,1.154,-5.859,54.016,-17.944
-0.105,0.086,1.152,-5.249,54.443,-22.095
-0.074,0.069,1.116,-3.296,57.434,-24.597
-0.029,0.058,1.064,-0.671,61.584,-26.184
-0.006,0.030,1.028,-0.122,64.087,-28.625
0.019,-0.001,0.937,3.052,66.772,-28.931
0.052,-0.013,0.835,8.423,67.566,-25.635
0.079,-0.025,0.760,10.986,64.758,-22.949
0.077,-0.046,0.719,11.108,58.533,-20.447
0.071,-0.025,0.675,14.343,50.903,-15.442
0.083,-0.016,0.676,18.860,41.138,-11.475
0.067,-0.012,0.710,21.118,30.884,-9.460
0.070,0.000,0.737,22.644,22.766,-6.775
0.068,-0.007,0.827,20.386,14.343,-5.371
0.051,0.010,0.905,16.968,8.362,-2.869
0.048,0.028,0.955,15.930,6.287,-0.671
0.063,0.005,1.005,17.578,5.127,-0.610
0.082,-0.007,0.983,24.292,7.629,0.183
0.068,-0.026,0.940,23.804,10.681,0.732
0.074,-0.017,0.916,19.043,10.986,2.869
0.066,-0.015,0.906,18.860,8.972,4.456
0.056,-0.001,0.917,19.531,5.005,5.249
0.054,0.000,0.949,17.212,1.465,5.798
0.044,0.001,0.996,13.367,-1.587,5.615
0.046,0.010,1.009,10.010,-2.502,5.981
0.056,-0.002,1.003,6.348,-1.831,5.859
0.062,-0.003,0.992,5.554,-0.793,5.798
0.051,0.009,0.993,8.362,-0.488,5.737
0.033,0.020,0.993,11.230,-0.488,4.944
0.025,0.029,1.014,11.597,-1.038,4.211
0.038,0.020,1.031,13.794,-2.319,2.808
0.035,0.008,1.063,9.583,-3.601,2.136
0.049,0.023,1.073,5.371,-3.052,2.930
0.051,0.017,1.086,5.554,-1.831,2.014
0.062,0.005,1.057,7.874,0.854,0.854
0.068,0.002,1.024,10.437,2.808,0.610
0.061,0.005,1.029,14.099,2.747,0.305
0.066,0.006,1.025,19.958,1.770,-0.183
0.064,-0.022,1.043,11.353,1.160,-0.488
0.071,-0.000,1.079,5.981,-0.305,1.099
0.073,-0.003,1.093,5.615,-0.671,1.343
0.078,-0.017,1.088,3.540,0.549,0.183
0.082,-0.022,1.089,2.441,0.793,0.549
0.074,0.002,1.084,1.709,1.465,1.282
0.074,-0.007,1.102,4.822,1.099,0.488
0.073,-0.001,1.082,8.423,2.075,0.244
0.074,-0.010,1.109,9.338,2.930,-0.427
0.090,-0.019,1.109,14.954,3.357,-1.282
0.083,-0.037,1.134,10.986,4.700,-1.099
0.074,-0.007,1.162,1.709,5.615,0.488
0.075,0.003,1.159,-2.197,7.385,0.793
0.084,-0.014,1.136,-4.028,10.132,-0.916
0.085,-0.007,1.128,-5.371,11.902,-0.793
0.086,-0.005,1.090,-5.249,13.855,-0.916
0.087,0.008,1.095,-6.470,14.465,-1.221
0.103,-0.019,1.091,-4.883,15.442,-2.563
0.091,-0.023,1.081,-2.075,16.846,-2.747
0.101,0.006,1.069,5.127,17.578,-1.709
0.092,-0.014,1.076,5.127,18.311,-2.502
0.090,0.005,1.055,0.671,21.057,-2.441
0.098,-0.016,1.033,1.099,22.888,-2.625
0.116,-0.032,1.026,0.427,22.888,-2.197
0.115,-0.028,1.038,-0.732,22.034,-0.977
0.120,-0.032,1.017,-0.244,22.583,0.183
0.114,-0.008,0.975,-1.831,23.987,1.282
0.117,-0.005,0.956,-1.282,23.071,0.671
0.121,-0.004,0.927,-1.892,21.484,-0.183
0.120,-0.005,0.913,-3.906,19.714,-0.549
0.138,-0.034,0.943,0.183,16.052,-0.977
0.136,-0.018,0.946,2.441,14.648,1.221
0.140,-0.016,0.943,3.967,13.062,1.831
0.130,-0.027,0.923,2.258,12.085,1.892
0.125,0.000,0.877,-1.099,11.353,3.235
0.116,0.010,0.891,-2.563,7.202,3.540
0.125,-0.013,0.926,-4.211,3.296,1.953
0.124,-0.016,0.991,-5.493,0.793,1.831
0.122,0.014,0.998,-6.836,1.282,3.174
0.130,0.002,0.988,-8.545,2.747,2.075
0.142,-0.001,0.971,-9.827,4.639,1.038
0.143,-0.006,0.934,-7.812,6.592,0.732
0.146,0.008,0.887,-3.540,7.629,0.916
0.150,0.006,0.837,0.427,7.568,0.305
0.153,0.005,0.809,4.822,5.127,0.000
0.143,0.017,0.790,7.263,1.343,0.183
0.140,0.018,0.770,5.615,-2.502,0.000
0.151,-0.000,0.760,2.380,-7.446,-0.610
0.155,-0.021,0.739,-0.122,-12.878,-0.366
0.156,-0.048,0.602,-1.709,-17.334,1.404
0.127,-0.056,0.332,-7.141,-24.963,5.493
0.118,-0.009,-0.017,-15.503,-42.664,11.292
0.093,-0.075,-0.265,-12.146,-77.148,12.329
0.066,-0.105,-0.366,-5.188,-122.314,14.954
-0.102,-0.004,-0.395,8.728,-166.809,19.775
-0.311,0.101,-0.307,25.085,-211.182,18.066
-0.511,0.152,-0.076,31.250,-247.253,10.376
-0.653,0.053,0.226,40.710,-272.705,-1.282
-0.747,-0.057,0.593,45.715,-287.048,-5.676
-0.685,-0.157,1.092,45.349,-286.438,-1.770
-0.442,-0.376,1.752,63.232,-271.423,2.625
-0.333,-0.322,2.355,124.268,-238.098,7.874
-0.296,-0.410,2.656,169.006,-188.599,6.775
-0.299,-0.401,2.883,157.104,-138.855,16.235

-0.412,0.169,2.674,48.157,-25.879,46.936
-0.474,0.002,2.203,15.991,23.437,27.222
-0.523,-0.081,1.699,-28.564,45.776,20.691
-0.418,0.114,1.561,-75.256,45.959,28.442
-0.416,-0.047,1.381,-84.900,44.495,4.822
-0.364,-0.178,1.141,-62.866,47.485,-14.893
-0.318,-0.225,1.041,-49.255,42.847,-20.203
-0.285,-0.245,0.969,-48.767,33.813,-18.738
-0.289,-0.203,0.950,-42.908,23.804,-12.512
-0.307,-0.139,1.021,-36.133,12.817,-6.348
-0.291,-0.068,1.079,-37.170,8.972,-2.625
-0.296,-0.026,1.140,-29.053,9.460,-4.028
-0.287,-0.025,1.152,-16.541,12.878,-8.423
-0.296,-0.017,1.145,-8.911,17.090,-11.475
-0.284,0.012,1.132,-4.883,19.592,-12.390
-0.264,0.025,1.096,-2.869,22.339,-14.465
-0.224,0.001,1.062,-3.235,24.353,-18.494
-0.184,-0.021,1.057,-1.221,24.353,-21.790
-0.151,-0.050,1.063,-4.150,25.513,-23.010
-0.131,-0.057,1.002,-5.981,28.687,-22.034
-0.119,-0.056,0.957,-6.042,29.785,-20.508
-0.127,-0.080,0.903,-2.563,27.710,-19.897
-0.130,-0.091,0.823,-1.465,25.391,-17.456
-0.145,-0.070,0.817,-5.066,19.592,-13.184
-0.167,-0.045,0.825,-2.625,11.169,-10.193
-0.150,-0.052,0.847,-4.028,4.517,-8.240
-0.137,-0.062,0.899,-4.456,-0.488,-7.324
-0.125,-0.103,0.957,-3.113,-2.930,-6.592
-0.131,-0.081,0.980,-1.221,-1.587,-2.930
-0.140,-0.081,0.937,2.869,2.441,-0.122
-0.155,-0.094,0.881,8.301,4.944,1.343
-0.162,-0.083,0.876,12.207,3.296,4.211
-0.164,-0.078,0.879,15.991,-0.488,6.531
-0.167,-0.085,0.921,14.648,-3.784,7.629
-0.183,-0.066,0.970,14.709,-7.141,9.338
-0.200,-0.052,0.990,13.000,-9.033,10.620
-0.216,-0.040,1.002,9.399,-10.254,10.864
-0.222,-0.041,1.009,6.165,-10.681,10.620
-0.224,-0.041,1.001,2.563,-10.437,10.193
-0.231,-0.040,0.993,0.549,-9.827,10.254
-0.240,-0.029,0.976,-0.610,-9.583,10.132
-0.242,-0.016,0.957,-1.038,-9.705,9.644
-0.240,-0.029,0.953,0.122,-10.315,7.812
-0.240,-0.024,0.975,0.977,-11.047,6.653
-0.235,-0.018,1.001,3.357,-11.108,5.737
-0.232,-0.034,1.015,6.287,-10.559,3.967
-0.241,-0.035,1.035,7.080,-9.705,3.479
-0.254,-0.020,1.040,6.348,-9.460,3.784
-0.261,-0.003,1.062,4.700,-9.460,3.479
-0.249,-0.022,1.076,3.784,-9.399,1.709
-0.239,-0.026,1.074,2.930,-8.423,-0.488
-0.243,-0.037,1.071,2.380,-7.446,-2.014
-0.239,-0.037,1.055,2.930,-6.531,-2.808
-0.235,-0.034,1.045,3.052,-5.920,-3.601
-0.235,-0.044,1.030,3.113,-5.554,-4.639
-0.237,-0.045,1.005,0.916,-5.066,-4.944
-0.233,-0.042,1.009,-0.977,-5.981,-4.700
-0.221,-0.053,1.005,-0.427,-6.714,-5.066
-0.225,-0.053,1.015,-1.282,-7.019,-5.188
-0.228,-0.043,1.028,-1.160,-7.751,-4.883
-0.240,-0.029,1.040,-0.427,-8.301,-4.578
-0.234,-0.029,1.046,-1.770,-8.728,-5.127
-0.233,-0.032,1.060,-2.808,-9.277,-5.676
-0.215,-0.038,1.078,-3.113,-8.911,-5.981
-0.203,-0.062,1.084,-2.380,-7.751,-6.348
-0.206,-0.060,1.065,-1.648,-5.859,-5.981
-0.209,-0.051,1.047,-1.709,-4.333,-5.066
-0.212,-0.052,1.025,-1.343,-3.601,-4.944
-0.217,-0.045,1.016,-1.160,-2.869,-4.456
-0.212,-0.044,1.008,0.488,-2.136,-4.150
-0.219,-0.046,1.016,1.282,-2.258,-4.395
-0.220,-0.045,0.999,0.793,-1.831,-3.723
-0.224,-0.041,1.001,-0.732,-2.319,-2.930
-0.221,-0.041,0.998,-0.977,-3.235,-2.625
-0.228,-0.038,0.995,-1.099,-3.601,-1.953
-0.228,-0.032,0.965,-0.061,-3.784,-1.587
-0.223,-0.048,0.936,0.305,-4.517,-1.465
-0.223,-0.047,0.938,-0.732,-6.653,-0.610
-0.230,-0.051,0.943,-0.427,-9.155,0.549
-0.226,-0.035,0.915,-1.038,-10.498,2.136
-0.241,-0.034,0.927,0.610,-13.000,1.831
-0.241,-0.044,0.927,4.028,-15.869,1.831
-0.237,-0.054,0.988,7.385,-18.250,2.747
-0.264,-0.035,0.974,8.423,-16.785,4.089
-0.252,-0.040,0.953,13.367,-16.663,3.845
-0.268,-0.027,0.986,10.620,-18.127,3.723
-0.267,-0.038,0.965,10.498,-17.883,2.441
-0.270,-0.056,0.933,10.620,-17.700,1.526
-0.284,-0.039,0.931,8.484,-19.531,1.648
-0.304,-0.014,0.957,8.911,-23.132,1.526
-0.309,-0.001,0.963,12.268,-25.818,-0.977
-0.319,-0.014,0.975,17.944,-28.381,-4.456
-0.329,-0.020,1.009,23.376,-31.433,-7.446
-0.320,-0.054,1.050,27.527,-33.569,-10.193
-0.289,-0.128,1.131,24.292,-33.936,-12.085
-0.212,-0.189,1.294,18.066,-34.546,-10.437
-0.180,-0.261,1.582,8.301,-32.471,-7.019
-0.177,-0.269,1.876,-12.085,-21.790,1.282
-0.094,-0.237,2.252,-57.922,-1.282,12.878
0.007,-0.313,2.808,-131.042,22.522,16.052
-0.324,-0.040,3.339,-230.957,63.660,29.480
-0.591,0.604,3.185,-264.343,137.634,38.757
-0.785,0.610,2.741,-176.270,208.679,-6.226
-0.971,0.311,2.282,-84.656,254.272,-63.416
-0.963,0.211,1.560,-44.678,290.039,-82.703
-0.907,0.113,1.008,-41.504,301.514,-90.637
-0.736,0.006,0.430,-31.616,296.082,-97.107
-0.527,-0.033,-0.019,-37.537,279.541,-96.008
-0.334,-0.065,-0.439,-57.861,252.319,-85.449
-0.104,-0.111,-0.693,-48.279,211.304,-65.735
0.089,-0.147,-0.624,-36.316,156.616,-42.114
0.213,-0.100,-0.503,-30.701,111.328,-18.372
0.230,-0.007,-0.342,-8.179,72.083,-2.075
0.153,0.111,-0.100,29.541,33.936,4.456
0.151,0.112,0.160,63.416,4.578,3.967
0.166,0.070,0.451,77.148,-14.465,0.854
0.169,0.015,0.895,82.520,-29.175,-2.075
0.133,0.026,1.185,93.750,-30.273,-1.404
0.076,0.070,1.303,83.313,-18.616,1.160

-0.314,-0.013,2.073,44.067,-148.499,15.625
-0.261,0.031,2.130,34.363,-113.892,12.024
-0.211,-0.022,2.189,27.283,-84.778,6.592
-0.176,-0.051,2.072,19.958,-48.401,5.371
-0.183,-0.058,1.792,16.235,-13.489,7.263
-0.228,-0.090,1.452,15.137,10.132,6.958
-0.293,-0.046,1.284,11.292,17.761,7.263
-0.333,0.027,1.111,13.672,18.066,6.042
-0.339,-0.031,0.992,11.414,14.404,-2.075
-0.323,-0.075,0.986,2.991,3.967,-7.446
-0.316,-0.071,1.041,-0.244,-7.935,-8.301
-0.316,-0.053,1.085,4.639,-18.127,-9.827
-0.318,-0.069,1.108,3.906,-23.560,-12.634
-0.291,-0.097,1.165,-4.578,-26.062,-15.198
-0.253,-0.109,1.254,-9.216,-25.269,-15.930
-0.270,-0.148,1.287,-6.836,-18.921,-16.174
-0.231,-0.123,1.306,1.465,-10.315,-12.085
-0.233,-0.121,1.290,2.258,-1.892,-9.155
-0.242,-0.086,1.256,0.916,7.996,-8.728
-0.222,-0.035,1.172,-1.587,18.433,-9.521
-0.255,-0.054,1.073,-6.592,25.635,-13.855
-0.203,-0.053,1.035,-9.338,27.466,-15.869
-0.206,0.020,0.926,-5.737,28.625,-19.958
-0.261,-0.098,0.942,-2.136,25.330,-28.015
-0.237,-0.020,0.900,-10.803,20.813,-23.621
-0.226,0.005,0.848,-18.005,16.846,-21.240
-0.195,-0.041,0.853,-24.841,9.827,-25.269
-0.190,-0.058,0.908,-34.729,3.662,-25.574
-0.205,-0.069,1.065,-37.598,-0.793,-24.109
-0.208,-0.060,1.125,-24.902,1.038,-19.653
-0.218,-0.039,1.085,-7.202,8.240,-13.245
-0.227,-0.001,1.025,7.874,13.489,-9.766
-0.228,0.019,0.979,19.470,15.137,-9.705
-0.207,-0.014,0.977,28.015,15.381,-11.658
-0.215,-0.062,0.975,39.063,13.794,-12.329
-0.208,-0.076,0.942,34.607,14.343,-10.315
-0.256,-0.044,1.034,16.235,13.000,-7.141
-0.162,0.034,1.429,80.444,7.263,-5.554
-0.236,-0.040,0.813,135.864,27.832,-6.836
-0.189,-0.091,0.143,30.640,41.321,-12.268
-0.163,-0.136,1.319,-36.438,-14.771,-14.832
-0.189,-0.069,1.201,-52.856,-11.475,-12.390
-0.200,-0.025,0.690,-69.031,18.066,-12.146
-0.176,-0.028,0.858,-98.450,-0.366,-16.418
-0.174,-0.027,0.774,-127.014,-13.672,-19.653
-0.208,-0.082,0.756,-117.432,-26.184,-20.386
-0.223,0.007,0.856,-122.192,-39.490,-14.771
-0.254,0.042,0.902,-115.662,-45.166,-11.719
-0.262,0.049,0.968,-91.125,-52.002,-10.071
-0.281,0.167,0.985,-76.233,-52.612,-6.592
-0.291,0.196,1.135,-65.186,-54.321,-10.986
-0.302,0.107,1.192,-53.894,-48.950,-18.494
-0.324,0.164,1.247,-33.813,-39.917,-16.541
-0.309,0.154,1.133,-20.142,-28.687,-14.526
-0.321,0.213,1.127,-20.508,-21.790,-14.893
-0.297,0.123,1.189,-25.024,-20.264,-18.250
-0.301,0.177,1.098,-14.465,-10.986,-17.395
-0.294,0.172,1.047,-22.339,-5.554,-17.639
-0.274,0.149,0.813,-25.391,-1.709,-21.301
-0.253,0.111,0.703,-38.818,-11.230,-22.278
-0.233,0.084,0.924,-42.664,-35.156,-20.447
-0.230,-0.011,0.663,-4.089,-47.058,-12.634
-0.318,0.338,0.930,25.513,-66.040,1.526
-0.320,0.156,1.235,34.180,-81.177,-11.841
-0.308,0.106,1.207,36.072,-57.007,-17.944
-0.328,0.116,1.056,48.157,-30.823,-14.282
-0.320,0.065,1.038,55.176,-20.325,-12.390
-0.328,0.136,1.120,67.139,-18.311,-9.460
-0.338,0.116,1.173,81.177,-13.184,-10.193
-0.346,0.075,1.140,99.304,-2.258,-11.658
-0.339,0.065,1.126,96.252,8.850,-10.010
-0.339,0.054,0.990,90.637,16.846,-8.057
-0.307,0.020,0.898,86.426,17.944,-6.165
-0.299,0.014,0.867,81.421,16.724,-6.042
-0.289,-0.013,0.847,78.857,14.099,-5.493
-0.268,-0.073,0.806,74.890,10.498,-3.662
-0.285,-0.041,0.824,74.219,1.465,1.343
-0.286,-0.065,0.950,68.481,-9.460,3.540
-0.291,-0.078,0.970,58.899,-12.451,6.470
-0.291,-0.077,0.960,47.607,-11.536,11.292
-0.300,-0.064,0.949,37.354,-10.071,15.259
-0.294,-0.060,1.001,28.992,-10.437,16.846
-0.314,-0.065,1.072,27.832,-10.193,16.602
-0.336,-0.046,1.250,24.536,-9.277,15.808
-0.335,-0.067,1.223,18.799,0.122,13.977
-0.356,-0.024,1.038,5.188,12.756,14.404
-0.355,0.000,0.985,-9.705,13.855,13.550
-0.337,0.009,0.970,-23.254,11.780,10.254
-0.312,-0.024,0.891,-28.625,12.024,5.676
-0.299,-0.034,0.872,-26.855,9.521,4.150
-0.282,-0.048,0.831,-29.480,4.272,4.272
-0.273,-0.036,0.812,-31.860,-0.061,5.981
-0.276,-0.026,0.858,-30.823,-4.761,7.263
-0.281,-0.039,0.952,-29.358,-7.996,7.263
-0.291,-0.040,1.005,-23.560,-7.751,7.446
-0.318,-0.035,1.001,-19.409,-5.493,9.033
-0.299,-0.020,1.062,-26.062,-5.920,10.803
-0.328,-0.025,1.075,-32.043,-5.554,11.780
-0.328,0.015,1.090,-32.959,-3.174,13.000
-0.312,0.011,1.043,-28.137,0.061,11.597
-0.321,0.017,0.989,-22.827,1.770,9.888
-0.319,0.013,0.914,-23.743,2.258,8.301
-0.297,0.044,0.888,-27.100,1.099,9.033
-0.307,-0.033,0.830,-30.701,-0.549,7.874
-0.317,0.077,0.827,-36.316,-3.174,11.230
-0.324,0.005,0.910,-42.786,-9.338,13.062
-0.310,0.105,0.944,-44.922,-11.780,15.259
-0.333,0.037,1.017,-46.448,-14.343,13.733
-0.328,0.073,1.008,-47.974,-11.597,11.597
-0.342,0.091,1.022,-46.448,-9.949,10.071
-0.339,0.081,1.000,-50.476,-7.996,7.385
-0.325,0.115,0.979,-57.312,-5.981,5.493
-0.311,0.034,1.000,-54.382,-5.798,0.549
-0.299,0.069,0.970,-37.659,-3.052,1.038
-0.316,0.064,0.925,-15.381,-1.343,0.427
-0.326,0.094,0.895,-7.812,-1.526,1.099
-0.338,0.078,0.890,-6.836,-4.517,1.404
-0.337,0.104,0.866,-8.667,-7.080,2.808
-0.340,0.098,0.891,-12.878,-10.559,2.747

-0.518,0.188,2.491,-12.390,-7.385,17.822
-0.577,0.225,2.893,-46.631,26.245,8.850
-0.712,0.304,2.981,-70.984,79.224,-1.221
-0.904,0.481,2.830,-86.609,136.536,-10.681
-1.068,0.608,2.491,-88.318,191.833,-29.846
-1.182,0.664,1.992,-80.933,240.723,-56.824
-1.125,0.455,1.505,-68.420,269.226,-84.595
-0.952,0.324,1.007,-51.575,280.884,-103.943
-0.792,0.189,0.573,-36.377,277.893,-118.408
-0.597,0.204,0.167,-25.513,263.550,-123.718
-0.341,0.033,-0.065,-25.024,242.371,-126.770
-0.098,-0.108,-0.017,-37.537,209.412,-119.873
0.064,-0.210,0.067,-35.278,179.199,-103.088
0.182,-0.232,0.099,-16.602,156.555,-80.444
0.240,-0.210,0.105,5.127,136.108,-57.556
0.246,-0.132,0.121,21.057,114.319,-38.696
0.235,-0.056,0.202,27.344,90.515,-26.367
0.218,-0.038,0.302,30.090,69.763,-20.081
0.217,-0.030,0.381,43.335,53.711,-15.259
0.207,-0.050,0.529,57.495,38.879,-10.437
0.202,-0.070,0.659,69.275,30.334,-5.615
0.167,-0.047,0.773,75.012,25.879,-0.610
0.136,-0.003,0.760,74.036,24.353,4.517
0.104,0.044,0.698,65.918,21.790,7.263
0.114,0.016,0.690,49.988,12.390,5.798
0.142,-0.023,0.707,34.485,0.122,5.493
0.168,-0.048,0.730,25.696,-11.108,8.240
0.188,-0.083,0.770,17.517,-21.179,11.963
0.172,-0.047,0.784,12.146,-28.748,18.127
0.145,0.001,0.789,12.146,-34.973,23.682
0.118,0.019,0.816,11.414,-42.053,25.696
0.079,0.061,0.945,8.606,-49.866,27.283
0.044,0.087,1.080,9.460,-54.077,28.564
0.018,0.104,1.183,9.949,-52.246,29.297
-0.008,0.136,1.250,10.193,-47.119,29.297
-0.036,0.174,1.248,10.376,-39.795,27.893
-0.030,0.159,1.227,9.644,-33.264,23.682
-0.001,0.079,1.184,10.498,-26.794,19.714
-0.049,0.151,1.115,14.771,-22.888,20.203
-0.008,0.192,1.094,11.169,-20.874,21.423
0.005,0.111,1.094,10.437,-18.250,13.855
0.008,0.121,1.063,11.719,-15.503,11.414
0.008,0.120,1.074,10.498,-14.771,11.047
0.007,0.125,1.104,8.545,-15.076,9.949
0.017,0.119,1.109,6.836,-13.611,8.301
0.022,0.104,1.116,7.446,-12.634,5.554
0.020,0.091,1.139,8.972,-11.292,3.479
-0.003,0.104,1.122,11.597,-9.521,3.052
-0.021,0.131,1.150,9.949,-9.644,2.563
-0.017,0.112,1.203,6.287,-10.864,0.000
-0.008,0.091,1.211,2.808,-9.644,-2.563
0.052,0.034,1.203,-1.160,-6.470,-3.479
0.042,-0.013,1.125,-1.160,-1.465,-1.282
0.022,0.089,1.094,-1.160,1.587,5.005
0.027,0.063,1.114,4.883,0.793,4.639
0.032,0.094,1.070,6.958,3.662,3.662
0.033,0.065,1.052,4.639,6.042,1.465
0.045,0.042,1.057,5.066,6.409,0.122
0.050,0.028,1.057,10.986,6.653,1.160
0.043,0.014,1.078,22.583,7.385,2.686
0.029,0.038,1.030,26.672,9.094,5.676
0.001,0.052,1.070,23.315,6.958,7.202
0.000,0.065,1.116,17.395,3.967,7.812
0.002,0.060,1.125,10.986,4.395,7.080
0.008,0.046,1.106,9.216,6.775,5.920
0.030,0.043,1.033,7.324,9.827,5.249
0.049,0.028,0.998,1.648,10.193,4.272
0.030,0.057,0.989,2.258,10.620,4.028
0.032,0.066,0.963,6.775,10.864,3.113
0.060,0.024,0.920,16.418,10.071,1.526
0.070,0.010,0.918,9.460,8.850,0.244
0.074,-0.003,0.933,5.798,5.859,1.282
0.061,0.020,0.911,7.690,4.150,3.662
0.050,0.036,0.934,9.277,1.465,5.493
0.036,0.029,0.985,13.000,-1.038,5.249
0.045,0.028,1.032,19.592,-2.258,5.066
0.034,0.034,1.008,14.343,-0.854,4.944
0.025,0.038,1.042,10.620,-1.343,3.784
0.017,0.086,1.015,8.362,-0.610,3.296
0.007,0.039,0.993,4.822,0.000,1.160
0.023,0.043,0.981,2.563,-0.793,-1.587
0.032,0.052,0.994,0.916,-2.441,-0.610
0.042,0.010,1.010,2.197,-2.380,-2.625
0.051,0.001,1.041,6.958,-2.075,-1.648
0.042,0.012,1.029,10.803,-0.305,0.305
0.035,0.024,1.026,13.245,0.427,1.160
0.032,0.016,1.030,13.489,0.366,0.854
0.032,0.009,1.036,12.634,0.366,0.977
0.044,0.006,1.028,12.695,0.122,1.221
0.025,0.020,1.039,12.512,-0.122,1.404
0.028,0.020,1.073,21.423,-1.587,1.099
0.020,0.012,1.070,14.832,-1.221,0.122
0.034,0.006,1.110,6.653,-0.549,-0.610
0.052,0.000,1.078,7.324,1.343,-0.427
0.046,0.016,1.055,10.925,3.174,-1.587
0.055,-0.045,1.039,20.508,3.723,-1.892
0.058,-0.020,0.984,16.052,5.249,-0.793
0.069,0.002,0.974,13.428,3.357,1.831
0.062,-0.026,0.972,15.686,1.465,1.099
0.055,-0.006,1.003,16.418,-1.099,1.892
0.041,-0.011,1.013,8.240,-1.648,1.770
0.035,0.005,1.061,5.188,-3.662,1.831
0.034,-0.001,1.056,3.296,-3.174,1.099
0.037,-0.015,1.074,2.441,-2.808,0.000
0.045,-0.021,1.073,2.319,-1.709,0.061
0.042,-0.014,1.054,3.296,0.488,0.061
0.033,-0.004,1.022,2.747,1.770,-0.183
0.032,0.003,0.999,1.770,1.953,-0.366
0.040,-0.008,0.997,0.854,0.854,-1.099
0.052,-0.028,0.999,1.526,-0.427,-1.343
0.051,-0.025,0.989,2.258,-0.793,-0.610
0.051,-0.021,0.979,5.432,-1.343,-0.061
0.054,-0.023,0.966,7.874,-2.136,-0.122
0.051,-0.024,0.955,8.728,-2.869,0.122
0.049,-0.029,0.952,9.277,-3.845,0.305
0.052,-0.031,0.947,7.324,-4.761,0.610
0.058,-0.042,0.937,4.517,-5.676,0.671
0.060,-0.045,0.923,4.089,-6.531,1.038
0.055,-0.039,0.900,4.944,-7.446,1.404

-0.671,-0.175,2.048,-17.395,-267.517,37.170
-0.701,-0.017,2.033,-17.456,-227.234,47.974
-0.740,0.106,1.939,-11.292,-187.439,49.072
-0.732,0.171,1.872,-8.423,-151.245,40.649
-0.674,0.104,1.817,-0.977,-119.812,25.635
-0.634,0.010,1.687,6.897,-87.891,14.221
-0.581,-0.022,1.576,15.625,-61.401,11.597
-0.567,-0.039,1.508,20.935,-42.480,11.047
-0.572,-0.041,1.416,21.973,-27.100,11.597
-0.559,-0.034,1.323,22.644,-16.174,13.733
-0.552,-0.038,1.308,21.912,-10.925,14.465
-0.564,-0.028,1.265,20.508,-7.690,13.977
-0.577,-0.007,1.182,17.029,-5.249,13.550
-0.577,0.005,1.175,11.169,-6.470,11.475
-0.580,0.003,1.192,5.188,-9.155,8.240
-0.566,0.011,1.192,-0.061,-8.789,5.737
-0.543,0.002,1.231,-4.700,-7.874,2.014
-0.524,-0.011,1.244,-7.446,-4.578,-2.075
-0.503,-0.008,1.242,-6.958,1.099,-4.333
-0.477,-0.023,1.175,-3.357,9.399,-5.859
-0.455,-0.026,1.120,-0.793,15.686,-7.019
-0.417,-0.057,1.087,2.014,18.921,-7.446
-0.402,-0.055,1.026,4.883,23.071,-6.775
-0.399,-0.050,0.990,5.981,25.024,-6.287
-0.390,-0.052,0.978,6.104,24.536,-5.432
-0.379,-0.041,0.961,5.310,23.499,-4.028
-0.381,-0.040,0.949,5.127,22.034,-3.662
-0.385,-0.025,0.931,5.798,20.569,-3.784
-0.382,-0.027,0.911,6.104,18.860,-4.517
-0.372,-0.034,0.902,4.700,16.357,-5.371
-0.356,-0.064,0.909,3.235,13.550,-5.737
-0.356,-0.072,0.903,1.953,11.963,-4.639
-0.333,-0.098,0.913,0.000,10.925,-2.686
-0.334,-0.108,0.931,-2.014,9.888,0.183
-0.349,-0.078,0.923,-1.404,10.193,3.906
-0.351,-0.092,0.896,0.061,10.559,6.165
-0.363,-0.073,0.867,-0.427,9.216,8.667
-0.375,-0.050,0.861,0.244,6.653,10.437
-0.385,-0.051,0.875,0.671,4.211,10.071
-0.394,-0.036,0.893,1.282,1.709,10.193
-0.402,-0.034,0.924,1.221,-0.671,9.766
-0.406,-0.038,0.960,0.732,-2.014,9.094
-0.414,-0.029,0.955,0.732,-1.648,9.094
-0.427,-0.017,0.943,0.000,-0.854,8.667
-0.414,-0.046,0.960,-1.526,-0.977,8.728
-0.412,0.008,0.962,0.122,0.427,8.545
-0.430,-0.038,0.952,0.061,1.892,4.456
-0.428,-0.004,0.937,-1.831,2.625,4.089
-0.408,-0.026,0.942,-3.174,1.526,3.174
-0.407,-0.035,0.943,-3.662,2.075,1.282
-0.406,-0.033,0.943,-2.930,2.747,1.160
-0.395,-0.047,0.929,-2.014,2.930,0.916
-0.393,-0.032,0.936,-0.244,2.808,1.160
-0.384,-0.069,0.918,1.587,2.808,0.427
-0.389,-0.033,0.888,2.991,2.563,2.380
-0.393,-0.037,0.905,3.296,0.366,2.502
-0.404,-0.014,0.883,4.333,-0.977,2.319
-0.405,-0.020,0.904,4.272,-3.113,1.831
-0.396,-0.030,0.949,3.723,-4.883,0.610
-0.399,-0.040,0.980,4.150,-5.371,0.244
-0.402,-0.029,0.991,4.517,-4.578,0.488
-0.404,-0.026,1.001,4.822,-3.784,0.122
-0.406,-0.031,1.019,5.005,-2.625,-1.160
-0.398,-0.039,1.006,5.371,-0.488,-1.892
-0.401,-0.019,0.994,5.432,1.221,-1.953
-0.389,-0.034,0.969,5.554,2.502,-2.930
-0.377,-0.050,0.965,4.883,3.052,-3.723
-0.365,-0.064,0.957,3.784,2.869,-3.357
-0.359,-0.067,0.939,4.456,2.747,-2.319
-0.363,-0.068,0.920,6.104,2.258,-1.038
-0.374,-0.055,0.903,7.019,0.854,-0.183
-0.386,-0.042,0.911,7.080,-1.709,0.305
-0.389,-0.041,0.941,7.629,-3.967,-0.061
-0.382,-0.064,0.966,7.812,-4.700,-0.854
-0.380,-0.071,0.998,6.836,-5.005,-0.854
-0.372,-0.081,1.027,5.981,-4.395,-0.061
-0.378,-0.081,1.016,7.874,-2.686,1.038
-0.391,-0.055,1.000,8.728,-0.793,2.625
-0.403,-0.058,0.983,7.324,-0.488,2.258
-0.399,-0.044,0.979,5.127,-0.671,2.380
-0.404,-0.047,0.976,3.784,-1.587,1.038
-0.405,-0.051,0.958,2.014,-1.770,-0.366
-0.395,-0.049,0.965,1.648,-2.258,-0.732
-0.387,-0.062,0.957,2.014,-1.953,-1.343
-0.387,-0.061,0.967,2.625,-1.770,-1.343
-0.386,-0.062,0.969,2.319,-1.648,-0.916
-0.387,-0.060,0.963,2.502,-1.221,-0.854
-0.391,-0.060,0.945,2.747,-0.916,-0.916
-0.397,-0.057,0.951,1.648,-1.770,-1.221
-0.391,-0.058,0.974,-0.061,-2.747,-0.977
-0.394,-0.062,1.000,0.000,-2.380,-1.221
-0.396,-0.050,1.004,1.221,-0.488,-1.038
-0.395,-0.047,1.000,2.625,1.282,-1.526
-0.388,-0.053,0.983,3.479,2.502,-2.197
-0.378,-0.071,0.966,3.479,3.357,-2.686
-0.379,-0.073,0.972,2.747,2.625,-2.136
-0.381,-0.067,0.961,2.502,2.258,-1.160
-0.388,-0.065,0.961,2.075,1.648,-0.732
-0.395,-0.052,0.999,1.587,0.183,-0.610
-0.395,-0.057,1.024,3.174,0.366,-1.221
-0.396,-0.067,1.046,4.272,1.648,-1.770
-0.399,-0.073,1.090,3.845,2.930,-1.831
-0.402,-0.074,1.114,4.089,5.371,-1.465
-0.397,-0.082,1.163,3.784,9.033,-0.549
-0.387,-0.116,1.281,4.517,13.855,-0.427
-0.388,-0.158,1.409,4.883,22.705,0.916
-0.367,-0.197,1.602,3.174,35.522,3.906
-0.374,-0.249,1.800,-3.845,51.758,7.141
-0.487,-0.060,1.862,-12.451,74.524,14.160
-0.573,0.003,1.838,-18.494,99.182,12.634
-0.626,0.113,1.788,-26.245,118.103,4.639
-0.638,0.099,1.747,-41.199,130.798,-8.057
-0.581,0.039,1.864,-60.974,139.465,-23.315
-0.520,-0.102,1.875,-68.787,154.053,-35.889
-0.532,-0.101,1.653,-68.176,176.270,-38.635
-0.521,-0.009,1.304,-63.965,194.885,-34.546
-0.473,0.089,1.043,-52.246,205.139,-32.593
-0.424,0.143,0.850,-37.415,206.665,-38.635
-0.346,0.089,0.737,-26.550,201.843,-46.143

-0.629,0.105,2.104,24.841,-120.300,61.401
-0.711,0.275,2.018,-0.488,-102.722,52.734
-0.594,0.293,1.997,-31.372,-90.515,33.997
-0.434,0.064,1.899,-52.307,-73.608,5.310
-0.342,-0.052,1.789,-52.673,-52.307,-10.437
-0.293,-0.057,1.588,-43.152,-29.785,-13.611
-0.278,-0.029,1.480,-31.860,-12.024,-13.733
-0.270,-0.022,1.399,-18.677,0.793,-14.404
-0.265,-0.026,1.320,-5.554,11.414,-14.648
-0.277,0.008,1.283,3.967,17.395,-14.343
-0.279,0.000,1.211,9.766,20.203,-15.869
-0.276,0.016,1.167,9.033,19.653,-17.639
-0.272,0.004,1.184,5.005,15.991,-20.020
-0.266,-0.006,1.200,1.526,13.733,-22.034
-0.242,0.003,1.192,-2.563,12.817,-23.437
-0.207,-0.031,1.241,-6.714,11.902,-26.184
-0.179,-0.040,1.197,-7.324,16.602,-28.442
-0.147,-0.064,1.152,-5.920,21.729,-30.212
-0.115,-0.093,1.118,-4.089,26.123,-30.396
-0.098,-0.117,1.068,-0.610,30.884,-28.687
-0.092,-0.085,0.982,2.808,35.461,-24.292
-0.091,-0.093,0.895,3.906,36.804,-21.667
-0.094,-0.100,0.831,4.333,33.875,-18.860
-0.096,-0.057,0.810,4.150,27.710,-13.367
-0.100,-0.065,0.800,3.723,20.508,-11.902
-0.099,-0.091,0.822,0.549,13.000,-10.681
-0.096,-0.078,0.864,-1.404,6.592,-7.141
-0.090,-0.102,0.923,-1.282,2.258,-5.066
-0.087,-0.114,0.985,-2.380,0.916,-1.953
-0.114,-0.091,1.012,-0.061,2.075,1.831
-0.133,-0.055,0.986,2.502,5.127,5.066
-0.136,-0.057,0.976,2.930,6.042,5.676
-0.139,-0.059,0.960,2.502,5.615,5.371
-0.144,-0.049,0.945,1.709,4.578,6.653
-0.137,-0.054,0.928,0.916,2.625,7.385
-0.134,-0.041,0.920,1.038,0.549,8.240
-0.139,-0.051,0.928,2.014,-1.038,8.423
-0.144,-0.024,0.903,2.930,-1.343,9.399
-0.153,-0.018,0.930,4.333,-3.357,9.277
-0.160,-0.023,0.962,5.249,-4.578,8.362
-0.158,-0.032,1.005,5.981,-5.310,8.362
-0.160,-0.031,1.028,7.263,-5.127,8.789
-0.179,-0.013,1.005,8.911,-4.028,9.033
-0.187,0.007,1.000,9.521,-3.662,8.545
-0.187,-0.009,1.002,8.850,-3.906,6.531
-0.184,-0.015,1.012,7.690,-4.272,5.127
-0.180,-0.015,1.026,6.592,-4.822,4.578
-0.181,-0.015,1.031,5.493,-4.883,3.662
-0.182,-0.010,1.030,4.150,-4.883,2.930
-0.180,-0.015,1.035,2.197,-5.066,1.892
-0.172,-0.019,1.046,0.610,-4.883,0.793
-0.161,-0.031,1.039,1.038,-4.150,-0.366
-0.163,-0.047,1.038,1.709,-3.418,-1.160
-0.163,-0.039,1.030,1.953,-2.747,-0.488
-0.175,-0.021,1.022,2.441,-2.747,0.000
-0.173,-0.042,1.023,2.258,-3.357,-1.038
-0.170,-0.024,1.039,0.977,-4.150,-0.916
-0.172,-0.037,1.074,0.183,-4.822,-1.709
-0.164,-0.043,1.094,-1.282,-4.517,-2.014
-0.166,-0.037,1.114,-0.854,-3.906,-1.648
-0.171,-0.033,1.132,0.183,-2.441,-2.136
-0.172,-0.034,1.100,0.610,0.366,-2.747
-0.160,-0.032,1.076,0.000,1.709,-2.808
-0.150,-0.050,1.055,-0.488,2.319,-3.540
-0.147,-0.045,1.014,-0.122,2.991,-3.235
-0.144,-0.036,0.997,0.671,2.625,-2.563
-0.136,-0.053,1.005,1.160,1.038,-2.625
-0.140,-0.040,1.005,1.770,0.427,-1.831
-0.138,-0.049,1.018,2.197,0.061,-1.099
-0.128,-0.065,1.010,1.892,0.061,-0.549
-0.132,-0.052,0.991,2.502,0.061,1.160
-0.142,-0.040,0.983,2.930,-0.793,2.258
-0.139,-0.047,0.972,2.686,-1.770,2.563
-0.137,-0.059,0.991,2.319,-3.601,2.930
-0.148,-0.049,1.001,2.136,-4.395,4.089
-0.151,-0.044,0.999,1.648,-4.761,4.883
-0.151,-0.038,1.006,1.709,-5.493,5.371
-0.155,-0.051,1.001,2.075,-5.676,5.005
-0.157,-0.034,0.986,2.319,-5.676,5.859
-0.157,-0.043,0.966,2.991,-6.409,5.920
-0.160,-0.040,0.952,3.784,-7.874,6.042
-0.166,-0.040,0.935,4.700,-10.315,6.348
-0.176,-0.031,0.922,5.493,-13.672,6.836
-0.177,-0.037,0.908,5.798,-17.456,7.507
-0.179,-0.042,0.900,6.287,-22.522,8.301
-0.180,-0.038,0.866,7.751,-27.344,9.827
-0.190,-0.035,0.817,11.597,-33.081,11.047
-0.212,-0.025,0.786,16.907,-40.649,12.390
-0.233,-0.024,0.747,24.292,-48.828,13.184
-0.216,-0.137,0.794,31.372,-58.228,13.000
-0.212,-0.257,1.040,34.058,-68.176,16.113
-0.186,-0.379,1.566,31.433,-74.341,24.841
-0.141,-0.546,2.210,22.461,-63.965,32.898
-0.284,-0.460,3.004,-1.831,-39.734,46.570
-0.568,-0.094,3.368,-29.724,7.019,61.401
-0.920,0.332,3.212,-55.237,68.848,57.922
-1.059,0.570,2.513,-73.608,126.831,29.602
-0.974,0.561,1.819,-77.698,169.739,-12.756
-0.761,0.363,1.385,-78.247,193.909,-60.852
-0.498,-0.074,1.024,-72.571,208.496,-93.750
-0.306,-0.147,0.599,-60.608,218.811,-92.163
-0.132,-0.084,0.293,-53.650,214.050,-77.332
-0.067,0.037,0.023,-34.668,200.989,-67.871
0.010,0.120,-0.262,-14.404,180.908,-65.491
0.127,0.043,-0.394,-10.498,148.499,-67.566
0.257,-0.112,-0.321,-14.343,104.553,-66.589
0.323,-0.168,-0.238,-15.930,61.829,-54.016
0.320,-0.131,-0.128,-9.155,22.827,-36.621
0.271,-0.080,0.100,2.747,-12.390,-23.987
0.256,-0.135,0.488,12.451,-40.283,-17.944
0.244,-0.247,0.934,20.508,-54.932,-15.198
0.173,-0.308,1.265,29.602,-53.345,-7.446
0.079,-0.235,1.451,33.875,-40.588,6.287
0.002,-0.090,1.417,31.494,-22.522,18.799
-0.032,0.037,1.255,25.085,-6.104,21.851
-0.027,0.041,1.124,15.564,2.319,14.648
0.009,-0.027,0.993,7.019,5.127,6.042
0.052,-0.051,0.879,0.793,4.272,4.395
0.072,-0.058,0.813,0.366,-0.610,6.226

-0.639,-0.720,2.304,16.479,-334.656,-37.109
-0.612,-0.673,3.044,-21.118,-280.884,-9.399
-0.652,-0.318,3.373,-32.776,-206.604,21.973
-0.679,-0.142,3.268,2.380,-127.380,35.156
-0.677,-0.011,2.596,26.550,-48.096,38.940
-0.665,0.124,1.959,27.283,10.559,35.828
-0.643,0.074,1.588,13.062,39.551,20.447
-0.568,0.048,1.303,-1.099,53.467,10.681
-0.440,0.011,0.985,-9.094,59.875,4.822
-0.337,-0.041,0.796,-12.024,53.833,-2.075
-0.292,-0.095,0.773,-12.146,37.598,-5.127
-0.281,-0.104,0.808,-10.193,19.653,-4.211
-0.307,-0.063,0.867,-4.822,2.380,-1.831
-0.363,-0.055,0.998,-2.747,-13.550,-3.174
-0.375,-0.069,1.120,-7.202,-23.315,-5.371
-0.384,-0.110,1.298,-11.719,-28.198,-6.409
-0.404,-0.116,1.422,-12.695,-25.208,-6.348
-0.420,-0.097,1.457,-12.512,-14.526,-6.042
-0.407,-0.052,1.482,-13.672,-2.502,-6.165
-0.399,-0.021,1.403,-8.728,15.747,-9.827
-0.363,-0.082,1.269,-2.747,32.166,-17.944
-0.277,-0.140,1.210,-1.587,41.748,-19.653
-0.213,-0.128,1.120,6.165,50.903,-18.616
-0.207,-0.124,0.949,13.550,60.547,-19.714
-0.191,-0.128,0.823,16.052,61.035,-19.348
-0.175,-0.094,0.766,15.442,53.467,-16.541
-0.140,-0.105,0.721,14.038,43.213,-14.771
-0.137,-0.086,0.742,13.489,31.311,-14.893
-0.173,-0.125,0.809,11.780,18.860,-15.137
-0.186,-0.096,0.873,6.897,8.728,-11.414
-0.203,-0.079,0.977,-0.488,0.122,-8.728
-0.186,-0.107,1.077,-7.446,-3.601,-9.521
-0.169,-0.151,1.132,-9.094,-1.404,-10.559
-0.173,-0.163,1.136,-7.141,5.493,-9.460
-0.179,-0.153,1.109,-4.883,13.367,-6.775
-0.176,-0.150,1.038,-3.113,20.264,-4.333
-0.172,-0.143,0.966,0.061,24.170,-1.770
-0.165,-0.137,0.894,1.404,24.353,1.343
-0.168,-0.128,0.840,2.014,21.301,4.028
-0.167,-0.103,0.813,2.136,15.503,7.202
-0.166,-0.092,0.803,3.174,8.911,8.850
-0.194,-0.069,0.838,5.005,2.136,9.277
-0.208,-0.055,0.886,5.432,-3.784,9.521
-0.200,-0.078,0.975,4.456,-8.057,8.850
-0.209,-0.094,1.042,4.333,-9.460,8.057
-0.229,-0.088,1.072,4.272,-7.385,8.362
-0.244,-0.066,1.051,2.869,-4.578,8.789
-0.250,-0.056,1.019,0.793,-2.380,8.118
-0.239,-0.057,1.001,-0.916,-1.282,6.470
-0.222,-0.083,1.001,-1.465,-0.854,4.639
-0.208,-0.093,1.000,-1.282,-0.183,4.272
-0.202,-0.095,0.980,-0.244,0.671,4.333
-0.206,-0.091,0.971,1.770,1.160,4.272
-0.203,-0.088,0.942,3.479,1.038,4.456
-0.213,-0.085,0.923,3.723,-0.854,4.456
-0.221,-0.070,0.942,3.418,-3.662,4.822
-0.229,-0.076,0.986,3.601,-6.470,4.028
-0.228,-0.083,1.024,2.319,-8.606,3.418
-0.228,-0.083,1.051,1.465,-8.911,3.296
-0.234,-0.084,1.073,1.892,-7.507,2.686
-0.243,-0.075,1.067,2.014,-5.615,2.258
-0.240,-0.073,1.060,0.732,-4.395,1.465
-0.226,-0.085,1.040,-0.366,-3.174,0.366
-0.214,-0.088,1.025,-0.244,-1.587,0.305
-0.209,-0.090,0.997,1.343,0.183,0.305
-0.209,-0.090,0.965,2.625,1.465,0.244
-0.221,-0.072,0.952,3.113,0.183,0.671
-0.219,-0.063,0.954,3.235,-1.770,0.793
-0.214,-0.076,0.967,2.686,-3.784,-0.122
-0.219,-0.071,0.985,1.648,-5.371,-0.549
-0.219,-0.068,1.000,0.977,-6.775,-0.793
-0.211,-0.082,1.008,1.038,-7.263,-1.587
-0.214,-0.078,1.015,1.648,-7.324,-2.075
-0.218,-0.089,1.021,2.441,-7.202,-2.563
-0.228,-0.078,1.047,1.892,-7.202,-2.441
-0.221,-0.091,1.082,1.953,-6.897,-2.686
-0.213,-0.100,1.071,3.662,-4.883,-3.113
-0.213,-0.107,1.059,3.906,-3.235,-2.991
-0.212,-0.107,1.035,4.272,-1.953,-2.258
-0.211,-0.097,1.010,4.944,-1.099,-1.465
-0.211,-0.103,1.003,4.761,-1.465,-1.404
-0.213,-0.103,0.996,4.395,-2.441,-1.160
-0.217,-0.099,0.979,3.723,-3.540,-0.366
-0.211,-0.102,0.996,2.991,-5.188,0.183
-0.207,-0.114,1.002,3.174,-6.470,0.244
-0.211,-0.119,1.014,3.174,-6.897,0.793
-0.217,-0.120,1.025,2.625,-6.714,1.953
-0.226,-0.103,1.046,2.136,-6.592,3.540
-0.229,-0.106,1.054,2.625,-5.981,3.723
-0.227,-0.110,1.056,2.747,-5.066,3.540
-0.222,-0.121,1.024,2.319,-4.517,4.272
-0.246,-0.075,1.013,2.014,-4.761,6.226
-0.255,-0.056,1.024,1.343,-5.371,6.042
-0.261,-0.070,1.052,0.916,-5.432,3.479
-0.256,-0.073,1.097,0.732,-4.578,1.831
-0.252,-0.089,1.105,1.953,-1.953,-0.183
-0.247,-0.092,1.081,3.601,2.075,-1.160
-0.245,-0.096,1.052,5.005,5.371,-1.770
-0.240,-0.100,1.045,4.333,7.141,-1.953
-0.231,-0.109,1.049,2.686,7.629,-1.770
-0.229,-0.097,1.037,1.404,8.362,-0.977
-0.222,-0.112,1.018,0.732,8.728,-1.160
-0.203,-0.123,1.001,-0.671,8.484,-0.671
-0.201,-0.115,1.000,-1.953,7.812,0.549
-0.212,-0.082,0.973,-0.061,7.996,1.099
-0.219,-0.116,0.985,-0.549,6.470,0.061
-0.215,-0.071,0.980,-2.014,4.639,2.258
-0.209,-0.091,0.988,-3.052,3.723,1.465
-0.197,-0.128,0.981,-5.005,3.540,0.854
-0.178,-0.102,0.963,-5.432,3.418,3.723
-0.164,-0.188,0.941,-2.014,2.258,5.127
-0.205,-0.071,0.948,0.427,1.892,12.207
-0.216,-0.060,0.985,-0.061,-1.160,13.977
-0.218,-0.070,0.998,-0.610,-1.953,10.437
-0.209,-0.073,1.000,-2.808,-1.831,9.094
-0.213,-0.090,0.982,-1.709,-1.709,7.629
-0.219,-0.074,0.963,-2.502,-1.953,8.240
-0.208,-0.097,0.971,-4.272,-3.845,8.179
-0.192,-0.110,0.989,-4.517,-5.310,8.545

-0.502,-0.435,1.913,48.157,-125.671,16.968
-0.598,-0.255,2.010,56.335,-84.595,39.185
-0.721,-0.010,2.015,54.199,-44.189,49.622
-0.788,0.129,1.958,39.795,-8.972,41.992
-0.757,0.120,1.879,18.616,20.691,24.719
-0.668,0.005,1.808,3.662,47.363,4.456
-0.614,-0.184,1.817,-11.597,70.618,-12.390
-0.593,-0.251,1.740,-23.437,94.299,-15.076
-0.517,-0.254,1.969,-32.288,118.164,-12.634
-0.568,-0.312,1.811,-35.645,158.264,-17.090
-0.636,-0.183,1.793,-33.264,194.763,-19.348
-0.740,-0.039,1.854,-26.184,217.712,-25.452
-0.851,-0.088,1.463,-19.409,254.761,-37.964
-0.868,0.012,1.074,-14.099,273.437,-37.537
-0.812,0.142,0.829,-12.146,267.883,-33.813
-0.691,0.143,0.592,-10.071,254.700,-40.527
-0.549,0.101,0.370,-6.836,236.877,-49.255
-0.397,0.047,0.222,-10.681,211.609,-53.406
-0.223,-0.043,0.148,-16.846,180.847,-50.598
-0.090,-0.069,0.169,-21.118,149.414,-41.382
0.009,-0.104,0.178,-18.188,122.620,-31.433
0.078,-0.109,0.177,-11.902,100.586,-21.606
0.104,-0.076,0.195,-3.174,77.576,-12.756
0.137,-0.111,0.217,4.028,54.199,-6.470
0.089,-0.037,0.187,16.296,33.020,-0.427
0.050,0.051,0.259,27.527,9.827,4.700
0.069,0.003,0.410,36.987,-9.766,0.977
0.083,-0.157,0.589,39.490,-23.254,-6.165
0.077,-0.273,0.826,34.607,-35.828,-6.287
0.042,-0.262,0.986,29.968,-43.091,2.563
-0.011,-0.199,1.089,25.696,-47.302,10.864
-0.048,-0.153,1.190,17.944,-49.744,13.306
-0.084,-0.121,1.267,8.484,-49.194,12.329
-0.093,-0.102,1.249,1.953,-43.518,10.437
-0.069,-0.133,1.210,-5.127,-36.621,7.446
-0.057,-0.165,1.119,-7.507,-30.212,6.104
-0.062,-0.117,0.977,-6.836,-24.353,8.789
-0.065,-0.081,0.930,-7.507,-24.048,10.193
-0.072,-0.119,0.934,-6.470,-26.611,9.033
-0.088,-0.111,0.924,-5.310,-29.907,12.085
-0.087,-0.088,0.981,-6.165,-36.926,15.930
-0.100,-0.110,1.098,-10.559,-43.884,16.113
-0.117,-0.132,1.181,-13.855,-46.509,16.907
-0.108,-0.164,1.309,-15.808,-46.692,19.531
-0.119,-0.200,1.493,-21.423,-44.128,22.034
-0.173,-0.161,1.630,-25.940,-33.325,26.184
-0.251,-0.026,1.704,-28.625,-14.526,30.762
-0.318,0.101,1.620,-33.875,8.179,28.442
-0.320,0.108,1.486,-39.856,26.733,18.066
-0.305,0.115,1.359,-42.664,36.682,7.751
-0.257,0.093,1.255,-42.114,44.617,-0.122
-0.132,0.040,1.125,-34.241,53.650,-6.531
-0.065,-0.035,0.971,-29.053,63.049,-10.010
-0.058,-0.048,0.887,-9.583,66.406,-8.728
-0.040,0.042,0.718,18.005,68.726,-2.014
-0.009,0.114,0.529,16.968,66.406,0.671
0.041,0.027,0.385,3.052,57.312,-2.930
0.073,-0.003,0.166,5.676,41.382,-3.113
0.026,0.188,-0.151,8.911,22.156,3.296
0.027,0.255,-0.510,-0.916,-8.179,0.488
0.093,0.139,-0.793,-7.812,-50.720,-9.094
0.145,-0.064,-0.594,-12.329,-110.718,-14.954
-0.044,-0.098,-0.325,8.728,-163.818,-15.686
-0.304,0.043,-0.136,48.157,-197.205,-8.972
-0.556,0.066,-0.069,82.397,-219.543,-9.583
-0.721,-0.078,0.292,111.694,-244.812,-13.550
-0.674,-0.469,1.192,121.582,-271.118,-16.113
-0.579,-0.734,2.302,116.211,-270.935,-7.751
-0.541,-0.668,3.308,106.873,-237.000,13.062
-0.641,-0.376,3.907,81.848,-169.189,33.325
-0.784,0.024,3.797,36.804,-73.364,38.025
-0.916,0.067,3.150,0.610,11.719,19.653
-0.823,-0.003,2.528,-31.311,67.688,1.282
-0.654,-0.073,2.107,-49.438,103.882,-9.338
-0.530,-0.280,1.750,-50.110,135.376,-28.625
-0.397,-0.437,1.508,-56.152,157.898,-37.781
-0.331,-0.464,1.165,-53.833,176.025,-29.968
-0.307,-0.398,0.914,-45.410,180.725,-14.587
-0.270,-0.303,0.839,-35.828,165.771,1.465
-0.301,-0.175,0.772,-32.349,145.020,15.320
-0.278,-0.015,0.667,-20.081,125.366,25.208
-0.242,-0.004,0.660,17.639,99.365,27.588
-0.182,-0.033,0.714,18.311,76.904,21.545
-0.164,-0.030,0.712,-22.034,66.528,18.555
-0.157,0.002,0.742,-38.208,57.190,19.470
-0.136,0.048,0.827,-29.785,49.744,21.423
-0.143,0.088,0.850,-21.301,48.767,19.653
-0.157,0.100,0.902,-13.367,50.171,15.381
-0.144,0.099,0.940,-13.000,50.415,10.498
-0.102,0.065,0.964,-14.282,51.941,4.761
-0.078,0.044,0.968,-8.118,54.871,-0.732
-0.057,0.056,0.885,-0.732,60.669,-4.700
-0.042,0.054,0.746,3.723,64.697,-8.850
-0.005,-0.001,0.646,5.981,61.768,-11.902
0.028,0.037,0.615,11.902,53.162,-11.780
0.057,-0.025,0.647,14.404,43.335,-15.137
0.066,-0.052,0.664,14.038,34.424,-18.127
0.042,-0.091,0.747,10.925,24.109,-15.747
0.046,-0.072,0.801,8.423,14.404,-10.803
0.044,-0.076,0.883,5.188,7.507,-8.728
0.054,-0.133,0.979,3.479,3.357,-9.399
0.047,-0.150,1.000,5.249,4.089,-7.446
0.024,-0.126,0.987,7.629,6.470,-3.845
0.002,-0.099,0.977,6.409,6.836,-0.671
-0.001,-0.084,0.966,5.310,5.127,0.977
0.003,-0.086,0.990,3.296,2.747,0.977
0.006,-0.097,0.997,1.282,0.916,0.854
-0.001,-0.064,0.972,-0.061,-0.610,2.197
-0.006,-0.026,0.974,-1.465,-2.930,2.686
-0.005,-0.031,0.964,-2.625,-4.211,-0.366
0.006,-0.059,0.944,-3.235,-5.859,-2.686
0.017,-0.051,0.979,-3.174,-8.728,-1.282
0.002,-0.044,0.970,-2.197,-9.705,-0.732
-0.008,-0.017,0.982,-3.174,-10.010,0.000
-0.016,-0.028,1.033,-4.211,-11.658,-0.977
-0.011,-0.056,1.089,-4.150,-12.390,-2.563
-0.001,-0.085,1.167,-4.089,-10.986,-2.869
-0.009,-0.096,1.195,-2.930,-7.141,-2.014
-0.024,-0.038,1.141,-1.526,-2.197,0.000

-0.617,0.093,2.178,20.142,-139.465,37.048
-0.708,0.132,2.260,6.958,-105.103,26.184
-0.708,0.179,2.334,-3.052,-74.585,18.127
-0.644,0.194,2.141,-7.568,-39.063,13.977
-0.542,0.084,1.725,-6.226,-5.310,7.019
-0.469,0.001,1.485,-2.380,14.038,0.610
-0.426,-0.083,1.361,0.549,22.400,-4.028
-0.376,-0.147,1.297,-0.305,26.489,-2.686
-0.360,-0.141,1.413,-2.991,25.513,2.808
-0.406,-0.117,1.604,-5.493,26.489,7.324
-0.441,-0.084,1.776,-8.667,34.973,11.475
-0.485,-0.071,2.045,-20.752,46.448,12.695
-0.615,0.026,2.246,-40.771,63.660,13.000
-0.733,0.169,2.178,-54.016,90.881,11.841
-0.803,0.244,2.088,-59.998,117.004,2.319
-0.807,0.255,1.837,-58.960,141.235,-10.742
-0.737,0.287,1.459,-55.115,163.635,-22.156
-0.607,0.259,1.193,-47.180,174.561,-35.645
-0.486,0.170,0.901,-37.109,179.260,-47.241
-0.376,0.179,0.797,-32.593,176.697,-49.011
-0.269,0.145,0.683,-24.231,171.997,-48.767
-0.182,0.130,0.598,-4.150,166.016,-46.326
-0.091,0.096,0.562,31.677,153.931,-41.443
-0.035,0.057,0.475,45.410,140.991,-37.048
0.015,0.026,0.500,23.987,127.136,-31.799
0.045,0.005,0.605,8.606,110.352,-27.588
0.062,-0.006,0.663,7.202,100.159,-23.560
0.066,-0.012,0.697,9.338,94.849,-20.020
0.068,-0.004,0.771,10.925,89.478,-17.822
0.072,-0.042,0.820,15.564,84.534,-16.235
0.083,0.015,0.741,29.358,84.717,-13.428
0.089,0.049,0.657,31.738,82.825,-14.771
0.095,0.019,0.534,27.405,78.857,-19.592
0.154,-0.034,0.468,20.142,70.679,-22.217
0.191,-0.064,0.445,13.611,59.326,-20.813
0.203,-0.072,0.431,12.451,46.814,-17.212
0.221,-0.061,0.404,14.893,34.119,-12.634
0.218,-0.052,0.408,16.113,21.118,-9.216
0.213,-0.076,0.488,15.930,6.836,-6.714
0.200,-0.104,0.615,17.517,-5.859,-3.845
0.179,-0.124,0.769,17.334,-15.869,1.038
0.152,-0.117,0.924,15.625,-22.461,6.775
0.107,-0.065,1.037,14.526,-24.353,12.451
0.057,0.004,1.067,13.611,-22.339,15.869
0.044,0.057,1.091,9.033,-19.531,15.320
0.054,0.051,1.088,4.333,-15.930,10.803
0.077,0.027,1.047,2.747,-12.024,6.836
0.087,0.032,1.014,3.052,-9.827,5.127
0.095,0.053,0.995,4.150,-10.132,4.395
0.104,0.053,0.979,2.808,-10.681,2.747
0.112,0.042,1.001,1.892,-12.878,0.793
0.108,0.039,1.033,0.854,-15.076,0.000
0.114,0.042,1.046,-0.061,-15.686,0.305
0.120,0.026,1.075,-0.061,-16.479,-0.061
0.115,0.021,1.095,1.465,-16.235,0.183
0.114,0.019,1.111,2.197,-14.954,1.221
0.111,0.007,1.146,2.991,-13.916,1.892
0.086,0.027,1.167,5.737,-12.207,2.808
0.070,0.045,1.184,5.676,-10.132,3.113
0.073,0.035,1.226,3.723,-9.033,1.282
0.085,0.011,1.223,1.770,-5.981,-0.305
0.091,0.023,1.174,0.610,-2.441,0.183
0.098,0.040,1.111,0.427,0.916,0.549
0.106,0.043,1.052,1.221,2.686,-0.183
0.109,0.048,1.021,1.648,2.686,-0.732
0.127,0.034,0.987,2.136,2.319,-1.343
0.129,0.015,0.981,3.235,1.099,-1.709
0.123,0.010,1.010,4.456,-1.465,-0.793
0.111,0.014,1.047,5.127,-2.747,0.793
0.105,0.005,1.081,5.371,-2.502,0.732
0.095,-0.016,1.111,3.235,-1.404,0.305
0.093,0.001,1.108,1.892,0.244,1.892
0.098,0.002,1.081,2.014,2.625,2.563
0.104,-0.004,1.069,3.296,4.028,2.075
0.110,0.000,1.029,5.676,6.226,2.563
0.118,-0.002,1.010,8.118,7.629,2.991
0.118,-0.003,0.972,9.583,8.484,2.808
0.122,0.004,0.919,10.315,7.874,3.662
0.119,0.010,0.904,9.888,4.456,4.517
0.112,0.015,0.927,9.094,-0.671,5.188
0.121,-0.014,0.986,6.287,-4.700,5.310
0.117,-0.029,1.071,4.700,-6.836,6.165
0.091,-0.011,1.131,5.554,-6.775,7.507
0.080,0.016,1.114,5.981,-3.906,8.606
0.076,0.023,1.095,6.104,-1.587,7.629
0.073,0.018,1.083,5.859,-0.122,6.104
0.083,0.021,1.061,6.653,1.160,5.615
0.087,0.013,1.053,7.385,2.014,4.822
0.087,0.013,1.050,8.057,2.808,4.150
0.086,0.010,1.038,7.812,3.235,3.601
0.079,0.026,1.031,6.348,2.502,3.601
0.082,0.027,1.019,4.395,1.709,3.174
0.090,0.013,1.042,2.686,0.000,1.831
0.095,-0.000,1.056,2.075,-0.610,1.160
0.097,0.002,1.055,1.892,0.122,1.160
0.096,0.005,1.044,2.380,1.160,1.099
0.094,0.004,1.033,3.784,1.709,0.610
0.098,-0.010,1.055,5.310,1.587,0.061
0.095,-0.017,1.079,5.249,1.831,0.305
0.092,-0.010,1.098,5.188,3.052,1.221
0.089,-0.004,1.087,6.165,4.883,1.221
0.090,0.001,1.064,5.859,6.836,0.854
0.093,0.002,1.038,5.249,7.812,0.000
0.098,-0.004,1.028,4.517,7.690,-0.427
0.110,-0.013,1.022,3.662,7.324,-0.610
0.108,-0.003,1.004,4.028,7.141,-0.610
0.113,0.003,0.977,3.906,6.714,-0.854
0.129,-0.023,0.978,3.357,5.188,-1.587
0.141,-0.040,1.006,2.563,2.930,-1.404
0.138,-0.027,1.009,1.892,2.625,0.244
0.132,-0.020,1.008,2.014,2.747,1.160
0.130,-0.018,1.019,2.563,2.686,1.404
0.125,-0.022,1.032,4.822,3.113,1.648
0.109,-0.009,1.018,5.615,4.028,2.563
0.110,-0.000,0.997,4.395,4.333,2.930
0.111,-0.001,0.998,2.014,3.052,1.953
0.116,0.003,0.985,0.488,2.197,1.282
0.114,0.001,0.974,-0.183,2.014,0.366
0.122,-0.007,0.976,-0.305,1.343,-0.183

-0.214,-0.668,3.104,63.416,-180.176,24.048
-0.494,-0.236,3.298,63.049,-115.051,50.232
-0.717,0.171,2.678,47.913,-38.513,50.842
-0.715,0.306,1.989,22.644,7.690,37.476
-0.520,0.172,1.549,-4.456,23.926,15.259
-0.330,-0.026,1.327,-25.024,30.823,-4.028
-0.190,-0.197,1.072,-26.123,35.278,-12.817
-0.112,-0.156,0.880,-20.264,32.410,-7.385
-0.103,-0.098,0.853,-11.963,20.569,-4.211
-0.120,-0.144,0.802,-4.944,9.705,-4.639
-0.141,-0.105,0.848,-1.770,-4.028,0.977
-0.178,-0.070,0.953,-2.869,-19.348,4.944
-0.232,-0.030,1.079,-5.371,-29.419,5.127
-0.255,-0.042,1.139,-8.240,-34.729,3.113
-0.277,-0.026,1.256,-13.977,-37.292,1.587
-0.273,-0.026,1.388,-17.578,-35.217,-1.648
-0.261,-0.085,1.467,-19.287,-26.001,-6.653
-0.234,-0.099,1.451,-18.616,-12.390,-7.263
-0.209,-0.116,1.401,-16.785,1.831,-6.104
-0.202,-0.012,1.312,-4.150,17.944,-5.249
-0.184,-0.069,1.113,1.221,32.898,-9.460
-0.155,-0.064,0.969,2.686,39.490,-11.047
-0.118,-0.062,0.895,2.625,35.767,-9.766
-0.092,-0.100,0.816,4.883,30.762,-10.681
-0.086,-0.090,0.746,7.202,23.315,-8.911
-0.102,-0.089,0.753,5.249,13.245,-6.287
-0.108,-0.080,0.857,2.808,1.770,-3.418
-0.121,-0.110,1.022,-0.061,-5.981,-1.709
-0.131,-0.143,1.192,-0.793,-7.874,0.549
-0.140,-0.187,1.389,-0.793,-4.761,3.662
-0.152,-0.215,1.566,-4.150,3.723,7.385
-0.178,-0.248,1.773,-12.024,16.479,11.963
-0.216,-0.232,1.980,-22.339,32.410,16.113
-0.283,-0.169,2.094,-33.325,54.749,18.738
-0.389,-0.072,2.065,-44.800,79.834,17.761
-0.479,0.076,1.873,-50.415,103.943,15.137
-0.484,0.137,1.625,-55.542,122.009,8.850
-0.398,0.104,1.416,-57.983,132.507,-0.977
-0.311,0.123,1.181,-56.274,139.465,-9.094
-0.242,0.073,0.944,-51.453,144.958,-17.639
-0.170,0.104,0.739,-47.241,144.775,-21.240
-0.039,0.118,0.564,-40.771,138.428,-20.691
0.025,0.075,0.399,-27.161,131.287,-22.583
0.086,0.054,0.406,-13.000,114.441,-22.400
0.136,-0.010,0.500,-5.554,97.961,-19.836
0.140,-0.010,0.602,0.854,86.548,-15.442
0.122,0.020,0.624,6.836,80.078,-11.719
0.113,0.031,0.633,8.850,74.280,-11.169
0.104,0.027,0.657,8.850,66.711,-12.207
0.128,0.068,0.632,8.545,59.753,-12.939
0.154,0.044,0.672,12.268,53.406,-16.785
0.188,-0.030,0.646,14.343,48.645,-21.118
0.214,-0.055,0.641,15.930,43.396,-20.142
0.231,-0.082,0.680,17.456,35.522,-17.883
0.245,-0.101,0.687,16.479,28.320,-15.015
0.257,-0.109,0.659,13.184,20.569,-10.681
0.254,-0.099,0.691,9.949,10.315,-6.775
0.253,-0.125,0.731,6.287,-0.671,-3.967
0.232,-0.080,0.765,2.625,-8.972,1.648
0.199,-0.036,0.820,-2.258,-15.991,5.859
0.192,-0.043,0.905,-4.395,-21.851,6.897
0.177,-0.047,0.986,-5.676,-25.635,8.057
0.167,-0.029,1.053,-6.226,-26.611,9.949
0.151,-0.022,1.109,-4.333,-25.146,10.437
0.134,0.003,1.115,-1.587,-21.179,10.559
0.133,0.006,1.121,-0.183,-17.029,9.705
0.132,0.013,1.118,1.648,-13.000,9.094
0.128,0.031,1.089,3.784,-8.789,8.484
0.131,0.040,1.062,3.967,-6.104,7.324
0.133,0.047,1.050,4.028,-5.188,5.554
0.136,0.056,1.025,3.784,-5.005,4.028
0.146,0.056,1.003,2.380,-5.493,2.747
0.153,0.041,1.021,1.221,-6.897,1.160
0.157,0.040,1.046,0.977,-7.812,0.244
0.163,0.028,1.046,1.526,-6.592,-0.610
0.168,0.012,1.053,3.052,-5.798,-1.465
0.155,0.022,1.050,4.883,-4.761,-1.343
0.143,0.029,1.052,5.432,-4.883,-1.343
0.148,0.003,1.088,3.601,-6.042,-2.258
0.144,-0.004,1.134,1.465,-7.263,-2.014
0.145,0.006,1.139,0.122,-5.920,-0.671
0.151,0.002,1.115,0.000,-3.845,-0.671
0.147,0.005,1.104,0.671,-2.319,-0.977
0.153,0.006,1.079,1.526,0.000,-0.671
0.164,-0.005,1.050,2.380,1.709,-0.732
